	t	acc_x	acc_y	acc_z	humidity	temp_from_hum	temp_from_pressure	pressure	compass_x	compass_y	compass_z	gyro_x	gyro_y	gyro_z	index
0	1512722574.4105792	0.008243161253631115	0.043459873646497726	0.9699134826660156	27.12211990356445	33.162403106689446	32.90833282470703	1013.315185546875	3.0423755645751958	-20.47560310363769	2.2567622661590576	0.11560985445976255	-0.007626868784427644	0.0051213763654232025	0
1	1512722574.4605784	0.0048489184118807325	0.04103194549679756	0.9730815291404724	27.12211990356445	33.162403106689446	32.900001525878906	1013.31396484375	5.952301979064941	-38.40538787841797	4.160749435424806	0.1085849106311798	-0.014651820063591003	0.006343107670545578	1
2	1512722574.5029135	0.007273377384990455	0.024279257282614708	0.9728378057479858	26.440584182739254	33.14369964599609	32.90416717529297	1013.319580078125	7.732878684997559	-47.5565071105957	4.914519786834717	0.09981456398963927	-0.0044340938329696655	0.006862767040729523	2
3	1512722574.549959	0.007030931767076254	0.04831572249531746	0.9704008698463441	26.440584182739254	33.14369964599609	32.910415649414055	1013.321044921875	9.206926345825195	-52.18115615844727	4.967795848846436	0.1056675985455513	-0.008702367544174194	0.0052664615213871	3
4	1512722574.5924585	0.006061147898435593	0.04151752963662148	0.9740563035011292	26.689212799072266	33.181102752685554	32.90833282470703	1013.319580078125	9.665385246276855	-54.63380432128906	4.950207710266113	0.11849576979875565	-0.00992409884929657	0.0074044913053512565	4
5	1512722574.6359465	0.006061147898435593	0.04297428578138352	0.9716193079948424	26.689212799072266	33.181102752685554	32.914581298828125	1013.317626953125	9.739046096801758	-55.81854629516602	4.9664177894592285	0.11360884457826614	-0.010534964501857758	0.0074044913053512565	5
6	1512722574.6783063	0.0012122296029701831	0.03981798142194748	0.9755184650421144	28.265811920166016	33.14369964599609	32.90833282470703	1013.322265625	9.589947700500488	-56.8772087097168	5.30128288269043	0.10475129634141922	-0.007786072790622711	0.010153383016586305	6
7	1512722574.7217042	0.006788485683500767	0.04321707785129547	0.969669759273529	28.265811920166016	33.14369964599609	32.90625	1013.320556640625	9.689969062805176	-57.208702087402344	5.446649551391602	0.10383499413728714	-0.07711927592754364	0.007099058479070664	7
8	1512722574.7679513	0.006061147898435593	0.043945454061031335	0.9708882570266724	26.074953079223636	33.012794494628906	32.91249847412109	1013.32177734375	9.179109573364258	-57.10261154174805	5.7832889556884775	0.1160523071885109	-0.00992409884929657	0.00984795019030571	8
9	1512722574.811334	0.00654603959992528	0.0424887016415596	0.9699134826660156	26.074953079223636	33.012794494628906	32.90833282470703	1013.322998046875	9.471961975097656	-56.99744033813477	5.4269328117370605	0.09925351291894913	-0.003510013222694397	0.0074044913053512565	9
10	1512722574.8537574	0.0036366886924952273	0.04321707785129547	0.9730815291404724	26.665813446044922	33.125	32.910415649414055	1013.32275390625	9.772632598876953	-56.84321212768555	5.099346160888672	0.10200240463018416	-0.006564341485500336	0.006488192826509476	10
11	1512722574.897226	0.006061147898435593	0.04491662606596947	0.9716193079948424	26.665813446044922	33.125	32.91666793823242	1013.320556640625	9.245054244995117	-56.58408737182617	4.981964588165283	0.10627845674753188	-0.009007804095745087	0.0067936256527900704	11
12	1512722574.93971	0.0055762561969459066	0.04370266199111938	0.9713756442070008	26.56928634643555	33.181102752685554	32.90833282470703	1013.31884765625	9.460770606994627	-56.78813552856445	4.808877944946289	0.1105545237660408	-0.0056480392813682565	0.008626218885183334	12
13	1512722574.9867532	0.006788485683500767	0.04564500227570534	0.972594141960144	26.56928634643555	33.181102752685554	32.90833282470703	1013.31640625	9.50535774230957	-56.68595886230469	4.903450965881348	0.10750018805265428	-0.008091501891613007	0.007709924131631851	13
14	1512722575.0290284	0.007030931767076254	0.04613059014081955	0.9723504185676576	26.57221221923828	33.19980239868164	32.91249847412109	1013.316162109375	9.50421905517578	-56.8458023071289	4.785268783569336	0.10933279246091844	-0.009618662297725676	0.0074044913053512565	14
15	1512722575.0728388	0.005818701814860106	0.0441882498562336	0.9716193079948424	26.817914962768555	33.14369964599609	32.90833282470703	1013.315185546875	9.178473472595217	-56.7472152709961	5.414892196655273	0.10444586724042892	-0.009007804095745087	0.006182760000228882	15
16	1512722575.116338	0.00654603959992528	0.0441882498562336	0.9706445932388306	26.817914962768555	33.14369964599609	32.91666793823242	1013.314697265625	9.138385772705078	-56.70259475708008	5.218635082244873	0.10902736335992813	-0.0056480392813682565	0.0067936256527900704	16
17	1512722575.1587393	0.006061147898435593	0.04564500227570534	0.9716193079948424	26.583911895751953	33.181102752685554	32.91249847412109	1013.31591796875	9.453033447265623	-56.95237350463867	5.176685810089111	0.10658390074968338	-0.006564341485500336	0.008931651711463928	17
18	1512722575.2059314	0.0048489184118807325	0.045159418135881424	0.974299967288971	26.583911895751953	33.181102752685554	32.910415649414055	1013.311279296875	9.628411293029783	-57.26770401000977	5.344697952270508	0.10811106115579604	-0.007786072790622711	0.006488192826509476	18
19	1512722575.2668364	0.007758269552141428	0.04297428578138352	0.9728378057479858	27.44387435913086	33.162403106689446	32.91666793823242	1013.30615234375	9.766327857971193	-57.35978317260742	5.007479667663574	0.10688932985067368	-0.009007804095745087	0.005877327173948288	19
20	1512722575.315131	0.004606472328305245	0.04564500227570534	0.9721066951751708	27.44387435913086	33.162403106689446	32.91249847412109	1013.3115234375	9.967583656311037	-57.24236297607422	4.947317123413086	0.10750018805265428	-0.007480636239051819	0.005571894347667694	20
21	1512722575.3666825	0.002666905056685209	0.04613059014081955	0.9694260358810424	26.408409118652344	33.19980239868164	32.91666793823242	1013.31689453125	9.960434913635254	-57.06895065307617	5.097272872924805	0.11147081106901167	-0.008702367544174194	0.00832078605890274	21
22	1512722575.410263	0.009455390274524687	0.040789153426885605	0.9730815291404724	26.788663864135746	33.162403106689446	32.90833282470703	1013.317138671875	9.607441902160645	-56.84485244750977	5.33657169342041	0.10505672544240953	-0.0071752071380615234	0.00832078605890274	22
23	1512722575.457348	0.009212944656610487	0.04054636135697365	0.9701571464538574	26.788663864135746	33.162403106689446	32.91249847412109	1013.319580078125	9.47371768951416	-56.89344787597656	5.570520401000977	0.10872191935777664	-0.006564341485500336	0.00832078605890274	23
24	1512722575.499965	0.008970499038696289	0.05050085484981537	0.9723504185676576	26.75063896179199	33.19980239868164	32.914581298828125	1013.3232421875	9.813803672790527	-56.67294311523438	4.469414710998535	0.10688932985067368	-0.005953475832939148	0.0074044913053512565	24
25	1512722575.5434828	0.002909350907430053	0.0497724786400795	0.9721066951751708	26.75063896179199	33.19980239868164	32.91249847412109	1013.32373046875	9.76051139831543	-56.91520690917969	4.2109150886535645	0.10536216944456099	-0.007480636239051819	0.008015353232622147	25
26	1512722575.5868194	0.00654603959992528	0.0424887016415596	0.9723504185676576	27.373674392700195	33.162403106689446	32.91666793823242	1013.3232421875	9.921256065368652	-57.15354919433594	4.074777603149413	0.11177625507116318	-0.0071752071380615234	0.008931651711463928	26
27	1512722575.6345901	0.012122295796871184	0.0424887016415596	0.9708882570266724	27.373674392700195	33.162403106689446	32.90833282470703	1013.324462890625	9.814431190490724	-57.10197830200195	4.805254459381104	0.10841649025678636	-0.006258904933929443	0.009542517364025116	27
28	1512722575.6841302	0.010425174608826636	0.04224590957164765	0.9708882570266724	25.595245361328125	33.218505859375	32.90625	1013.323486328125	9.82119369506836	-56.97912216186523	4.755757808685303	0.1059730276465416	-0.00534261018037796	0.010458815842866898	28
29	1512722575.7300954	0.0021820133551955227	0.04151752963662148	0.9830730557441713	25.595245361328125	33.255905151367195	32.914581298828125	1013.323974609375	10.027474403381348	-57.01182174682617	4.227977752685547	0.10627845674753188	-0.005953475832939148	0.007709924131631851	29
30	1512722575.7896118	0.0024244592059403662	0.039575189352035516	0.9745436906814576	26.03400230407715	33.255905151367195	32.910415649414055	1013.324951171875	9.901269912719727	-56.74823760986328	4.417548656463623	0.10291870683431624	0.07406987994909286	0.005877327173948288	30
31	1512722575.836685	-0.0007405069191008806	0.05098643898963928	0.9699134826660156	27.94405746459961	33.19980239868164	32.910415649414055	1013.33154296875	9.835693359375	-56.1974105834961	4.598949909210205	0.10002371668815613	-0.0012359991669654846	0.006094247102737428	31
32	1512722575.887336	0.008000715635716915	0.04613059014081955	0.9691823720932008	27.94405746459961	33.19980239868164	32.902084350585945	1013.331298828125	9.64359188079834	-56.30222702026367	4.78744649887085	0.1009400188922882	0.0002911686897277832	0.007621411234140395	32
33	1512722575.929659	0.014061863534152508	0.045159418135881424	0.9682075977325441	27.14844512939453	33.162403106689446	32.91666793823242	1013.3310546875	9.252318382263184	-56.37229919433594	5.436935901641847	0.09819111227989197	-0.003679454326629639	0.007315978407859801	33
34	1512722575.9732866	0.00630359398201108	0.03641888871788978	0.9699134826660156	27.14844512939453	33.162403106689446	32.910415649414055	1013.333984375	9.165042877197266	-56.15380096435547	5.570385932922363	0.10582692921161653	-0.07820501923561096	0.007926840335130692	34
35	1512722576.0355265	0.0012122296029701831	0.036661680787801736	0.968938648700714	26.557586669921875	33.181102752685554	32.91249847412109	1013.333984375	9.220947265625	-56.00181198120117	5.316428184509277	0.10307803750038147	-0.005817487835884093	0.005483381450176239	35
36	1512722576.0795152	0.008000715635716915	0.04491662606596947	0.9745436906814576	26.87934112548828	33.181102752685554	32.914581298828125	1013.328857421875	9.344274520874023	-56.16051864624024	5.705693244934082	0.106132373213768	-0.003984890878200531	0.007926840335130692	36
37	1512722576.1231186	0.006061147898435593	0.04443104192614555	0.969669759273529	26.87934112548828	33.181102752685554	32.914581298828125	1013.3310546875	9.343738555908203	-56.09596252441406	5.850205421447754	0.10582692921161653	-0.005817487835884093	0.007926840335130692	37
38	1512722576.1659205	0.006061147898435593	0.042731493711471565	0.9630899429321288	27.376598358154297	33.125	32.910415649414055	1013.33251953125	9.621265411376953	-56.11402893066406	5.410156726837158	0.1067432314157486	-0.003679454326629639	0.0070105455815792075	38
39	1512722576.2131104	0.002909350907430053	0.04491662606596947	0.9716193079948424	27.376598358154297	33.125	32.914581298828125	1013.334228515625	9.650693893432617	-56.535926818847656	5.750417709350586	0.10552150011062622	-0.004595756530761719	0.007621411234140395	39
40	1512722576.2746825	0.005091364029794931	0.04370266199111938	0.9718630313873292	27.40292358398437	33.162403106689446	32.91666793823242	1013.337890625	9.72693157196045	-56.63851547241211	5.483022689819336	0.10765953361988068	-0.005512051284313203	0.008232273161411284	40
41	1512722576.3182564	0.0055762561969459066	0.037390053272247314	0.9789302349090576	28.36233901977539	33.162403106689446	32.920833587646484	1013.34375	9.678777694702148	-56.34928894042969	5.457949638366699	0.10735410451889038	-0.006733782589435577	0.008843138813972473	41
42	1512722576.3653321	0.001939567388035357	0.043459873646497726	0.9718630313873292	28.36233901977539	33.162403106689446	32.918750762939446	1013.34130859375	9.950956344604492	-56.78361892700195	5.630697250366211	0.10827039182186128	-0.003984890878200531	0.00853770598769188	42
43	1512722576.4077206	0.0041215806268155575	0.04297428578138352	0.9733252525329591	26.95246696472168	33.087600708007805	32.90833282470703	1013.33935546875	9.85467529296875	-56.97449493408203	5.534551620483398	0.1067432314157486	-0.005817487835884093	0.008232273161411284	43
44	1512722576.4512293	0.008000715635716915	0.0441882498562336	0.9708882570266724	26.95246696472168	33.087600708007805	32.92291641235352	1013.3466796875	9.859241485595703	-56.8819808959961	6.03251314163208	0.106132373213768	-0.003984890878200531	0.0067051127552986145	44
45	1512722576.4936926	0.0055762561969459066	0.042731493711471565	0.9718630313873292	26.762338638305664	33.19980239868164	32.918750762939446	1013.34619140625	9.642179489135742	-56.65951156616211	5.6634788513183585	0.11468447744846345	-0.00612291693687439	0.00853770598769188	45
46	1512722576.5419095	0.008243161253631115	0.05098643898963928	0.9606529474258424	26.762338638305664	33.19980239868164	32.924999237060554	1013.342041015625	9.378384590148926	-56.50754928588867	5.545595169067383	0.2255565226078033	-0.04277483373880386	0.016478955745697018	46
47	1512722576.593109	-0.018759509548544884	-0.0349777527153492	0.9650395512580872	26.6950626373291	33.068897247314446	32.910415649414055	1013.34326171875	9.363856315612793	-57.22771072387695	5.279627323150635	0.4179790914058685	0.07756561785936356	0.031139720231294632	47
48	1512722576.6368768	-0.01777216605842114	0.14251923561096191	0.9462748765945436	26.6950626373291	33.068897247314446	32.918750762939446	1013.337890625	9.679932594299316	-57.1713752746582	5.109017372131348	-0.1620168387889862	-0.0714852586388588	0.006892722100019455	48
49	1512722576.6800518	0.03976112976670265	-0.06585466861724854	0.9728378057479858	27.2303466796875	33.125	32.914581298828125	1013.34130859375	9.889406204223633	-57.00219345092773	5.33903169631958	0.2310749590396881	0.02808577567338944	0.006892722100019455	49
50	1512722576.7276778	0.00048489184700883925	-0.03859614208340645	0.966745376586914	26.794513702392575	33.181102752685554	32.92291641235352	1013.340576171875	9.961553573608398	-57.061973571777344	5.724990367889403	0.10602696985006332	-0.01561908423900604	0.009805537760257721	50
51	1512722576.7713315	0.010182728059589865	0.040789153426885605	0.9752748012542723	26.794513702392575	33.181102752685554	32.91249847412109	1013.335693359375	10.21319580078125	-57.15052795410156	5.866978645324707	0.10093915462493896	-0.00034161657094955444	0.007885143160820006	51
52	1512722576.8137615	0.0024244592059403662	0.030349070206284526	0.9728378057479858	26.56343650817871	33.218505859375	32.91249847412109	1013.3291015625	9.894063949584961	-57.31280899047852	5.8404903411865225	0.103688046336174	-0.003701373934745789	0.007579710334539413	52
53	1512722576.8631408	0.006061147898435593	0.05462832748889923	0.9730815291404724	26.56343650817871	33.218505859375	32.91666793823242	1013.33740234375	9.896078109741213	-57.09353256225586	5.682387828826903	0.10552063584327698	-0.004006803035736084	0.007579710334539413	53
54	1512722576.9063025	-0.0004936712794005871	0.04783013463020325	0.9611403942108154	25.8497257232666	33.19980239868164	32.92291641235352	1013.3427734375	9.835360527038574	-57.13390731811523	4.961494445800781	0.11071299016475676	-0.004617668688297272	0.006663415580987929	54
55	1512722576.9533837	0.001939567388035357	0.042731493711471565	0.975031077861786	25.8497257232666	33.19980239868164	32.910415649414055	1013.3466796875	9.634732246398926	-57.24652481079102	4.794968128204347	0.10307717323303224	-0.0033959373831748962	0.0063579827547073356	55
56	1512722576.9958918	0.006061147898435593	0.03471934050321579	0.9626024961471558	27.680803298950195	33.162403106689446	32.929168701171875	1013.3427734375	9.682390213012695	-56.56078338623047	4.8871498107910165	0.10643693804740906	-0.0030905082821846013	0.006968848407268524	56
57	1512722577.0394812	0.009940282441675665	0.04054636135697365	0.9735689163208008	27.680803298950195	33.162403106689446	32.910415649414055	1013.3408203125	9.884588241577148	-56.60156631469727	4.717815399169922	0.1094912588596344	-0.004617668688297272	0.007274281233549119	57
58	1512722577.081981	0.010182728059589865	0.0441882498562336	0.9733252525329591	26.96124267578125	33.162403106689446	32.920833587646484	1013.339111328125	9.808085441589355	-56.69997787475586	4.308098316192627	0.1097966879606247	0.0011855512857437134	0.008190575987100601	58
59	1512722577.1295614	0.002909350907430053	0.05220040306448937	1.0011066198349001	26.96124267578125	33.162403106689446	32.92291641235352	1013.34130859375	9.414947509765623	-56.87232208251953	5.171700954437256	0.10826952755451202	-0.00919915735721588	0.0060525499284267426	59
60	1512722577.1755204	0.005333810113370418	0.0441882498562336	0.9784428477287292	27.18647003173828	33.19980239868164	32.924999237060554	1013.337646484375	9.421812057495117	-56.85400009155274	5.747557640075684	0.1094912588596344	-0.0021742060780525208	0.010634038597345352	60
61	1512722577.2228925	0.01430430915206671	0.043945454061031335	0.954073131084442	25.84387588500977	33.14369964599609	32.920833587646484	1013.335693359375	9.50182056427002	-56.89752197265625	5.01216983795166	0.1097966879606247	-0.005839399993419647	0.007274281233549119	61
62	1512722577.2669759	-0.0	0.03811843320727348	0.9835605025291444	25.84387588500977	33.14369964599609	32.914581298828125	1013.3369140625	9.745434761047363	-57.0161018371582	5.295403480529785	0.1094912588596344	-0.00522853434085846	0.00971774011850357	62
63	1512722577.3094995	0.00024244592350441957	0.0441882498562336	0.9672328233718872	27.27422142028809	33.19980239868164	32.918750762939446	1013.338623046875	9.612787246704102	-56.9851188659668	5.860229969024657	0.1097966879606247	-0.0021742060780525208	0.008496008813381195	63
64	1512722577.3572025	0.009212944656610487	0.05098643898963928	0.9784428477287292	27.27422142028809	33.19980239868164	32.92291641235352	1013.3427734375	9.472126007080078	-57.11659240722656	5.80906867980957	0.10796409845352173	-0.004617668688297272	0.0060525499284267426	64
65	1512722577.407117	0.007758269552141428	0.037875641137361526	0.9708882570266724	28.333087921142575	33.27460479736328	32.918750762939446	1013.344970703125	9.595831871032717	-57.08238983154297	5.641768932342528	0.10857497155666353	-0.004006803035736084	0.008496008813381195	65
66	1512722577.4514465	-0.0	0.04321707785129547	0.9733252525329591	28.333087921142575	33.27460479736328	32.92291641235352	1013.34375	9.76051425933838	-56.90834045410156	5.270758628845215	0.1046043336391449	-0.0030905082821846013	0.007274281233549119	66
67	1512722577.498787	0.0033942428417503834	0.04467383399605751	0.9738126397132874	27.353199005126953	33.27460479736328	32.92708206176758	1013.345947265625	9.794361114501953	-56.8101577758789	5.081287860870361	0.10246631503105164	-0.004617668688297272	0.0060525499284267426	67
68	1512722577.5425024	0.009212944656610487	0.045887794345617294	0.9694260358810424	27.353199005126953	33.27460479736328	32.91666793823242	1013.34521484375	9.97358226776123	-56.94968032836914	5.2396512031555185	0.11315645277500153	-0.006450265645980835	0.007579710334539413	68
69	1512722577.5924206	0.003879134776070714	0.03981798142194748	0.9706445932388306	26.81206512451172	33.19980239868164	32.92291641235352	1013.3408203125	9.991567611694336	-56.91085433959961	5.581669330596924	0.1140727549791336	-0.004006803035736084	0.009412307292222977	69
70	1512722577.6360734	0.002666905056685209	0.04734455421566963	0.9806361198425292	25.44314384460449	33.255905151367195	32.92291641235352	1013.34716796875	9.832881927490234	-56.54524993896485	5.9100914001464835	0.12109769880771636	-0.00522853434085846	0.006968848407268524	70
71	1512722577.679783	0.0055762561969459066	0.047101758420467384	0.9713756442070008	25.44314384460449	33.255905151367195	32.92291641235352	1013.341796875	9.620573043823242	-56.57635879516602	6.1401920318603525	0.12079226970672607	-0.0018687769770622253	0.007274281233549119	71
72	1512722577.7265015	0.010667620226740835	0.04734455421566963	0.9706445932388306	27.26544761657715	33.14369964599609	32.914581298828125	1013.341552734375	9.80271053314209	-56.89593887329102	5.267618179321289	0.08760426193475722	7.075071334838867e-05	0.0055556483566761026	72
73	1512722577.7793062	0.00654603959992528	0.04224590957164765	0.9745436906814576	27.26544761657715	33.14369964599609	32.91666793823242	1013.347412109375	9.725542068481444	-56.74333953857422	5.049668312072754	0.12028556317090988	-0.00298357754945755	0.007388241589069366	73
74	1512722577.8219035	0.0033942428417503834	0.0276783537119627	0.9721066951751708	26.344057083129886	33.255905151367195	32.92291641235352	1013.3466796875	9.815150260925293	-56.46438217163086	5.066038131713867	0.08709699660539627	-0.0011111050844192505	0.0045254454016685495	74
75	1512722577.8692493	0.002909350907430053	0.050015270709991455	0.977224349975586	26.344057083129886	33.255905151367195	32.92291641235352	1013.346923828125	9.73678970336914	-56.52220153808594	5.58909797668457	0.10450664907693864	-0.007219754159450531	0.009717799723148346	75
76	1512722577.9117062	0.008243161253631115	0.045159418135881424	0.9706445932388306	28.09323501586914	33.19980239868164	32.92708206176758	1013.349365234375	10.343185424804688	-56.73575210571289	5.955056190490723	0.11855655163526535	-0.008441485464572906	0.009106934070587158	76
77	1512722577.9551954	0.0036366886924952273	0.04321707785129547	0.9735689163208008	28.09323501586914	33.19980239868164	32.91666793823242	1013.3408203125	10.29460334777832	-56.93960189819336	6.027095317840576	0.09809256345033646	-0.004776298999786377	0.0069689080119133	77
78	1512722577.998688	0.0012122296029701831	0.04103194549679756	0.9752748012542723	27.505300521850586	33.218505859375	32.92708206176758	1013.344482421875	9.528080940246582	-57.09086608886719	5.9772682189941415	0.10572838038206099	-0.0059980303049087524	0.007579769939184189	78
79	1512722578.0463445	0.0048489184118807325	0.048801306635141366	0.9757621884346008	26.999267578125	33.106300354003906	32.920833587646484	1013.34814453125	9.591843605041504	-57.1182746887207	5.9975104331970215	0.10695011168718338	-0.003859996795654297	0.005441743880510329	79
80	1512722578.0891516	0.008000715635716915	0.03496213257312775	0.9711319208145142	26.999267578125	33.106300354003906	32.92708206176758	1013.342041015625	9.523343086242676	-56.85451126098633	5.5860700607299805	0.1613171100616455	0.00591384619474411	0.009717799723148346	80
81	1512722578.1314874	0.017213661223649982	0.0016995479818433525	0.9852663278579712	25.90530014038086	33.14369964599609	32.92708206176758	1013.343017578125	9.408347129821776	-57.15926742553711	5.677694320678711	0.6545908451080322	0.1372498869895935	0.1630449742078781	81
82	1512722578.1759036	-0.003208863316103816	0.035204920917749405	0.9791739583015442	25.90530014038086	33.14369964599609	32.914581298828125	1013.339111328125	9.308746337890623	-57.00120544433594	6.031291961669923	0.9939265251159668	0.22063297033309934	0.32339709997177124	82
83	1512722578.2224529	-0.054797515273094184	0.1179971918463707	0.9818546175956726	25.97550201416016	33.255905151367195	32.929168701171875	1013.333251953125	8.866997718811035	-56.16604995727539	6.957354068756104	0.9820146560668944	0.013855092227458954	0.4834438264369965	83
84	1512722578.2660127	-0.03900003433227539	0.07696525007486342	0.9991570711135864	25.97550201416016	33.255905151367195	32.931251525878906	1013.338623046875	8.566959381103517	-54.84152603149414	7.708006858825684	1.9303829669952397	0.03370821475982666	0.7516136169433594	84
85	1512722578.308667	-0.031594961881637566	0.19811874628067014	0.9574849009513856	26.95246696472168	33.162403106689446	32.920833587646484	1013.340087890625	8.333452224731445	-53.30023193359375	8.606861114501951	2.412661075592041	0.2139134407043457	1.0576571226119995	85
86	1512722578.3744185	-0.06467094272375107	0.3049474656581879	0.9082581996917723	26.78573989868164	33.23720550537109	32.92291641235352	1013.33740234375	7.247673511505128	-50.837928771972656	9.84867000579834	2.3799796104431152	0.8907521963119507	0.8264446258544922	86
87	1512722578.4253519	-0.09577222913503647	0.5229752063751221	0.8816952109336853	26.78573989868164	33.23720550537109	32.92291641235352	1013.3349609375	6.333335876464844	-47.46427536010742	11.183218955993652	-0.5161324143409729	1.5822516679763794	0.7342039346694946	87
88	1512722578.4680314	-0.1880887746810913	0.4916549921035767	0.8933926820755005	26.79743957519531	33.218505859375	32.931251525878906	1013.3427734375	4.563338279724121	-45.78608322143555	11.993573188781738	-1.488629937171936	2.1888408660888667	0.5744627714157104	88
89	1512722578.5114431	-0.294721782207489	0.32170018553733826	0.891686737537384	26.79743957519531	33.218505859375	32.931251525878906	1013.34423828125	1.374095439910889	-45.938232421875	12.247581481933596	-0.3450901806354523	2.2710022926330566	0.8130055665969849	89
90	1512722578.561165	-0.4149307310581207	0.32412806153297424	0.8955858945846558	26.5341854095459	33.218505859375	32.924999237060554	1013.337646484375	-1.7772163152694702	-46.6104965209961	12.27223300933838	1.1170158386230469	1.522692322731018	1.279706597328186	90
91	1512722578.6085556	-0.4566459357738495	0.4989387094974518	0.8446532487869263	26.5341854095459	33.218505859375	32.933334350585945	1013.33837890625	-5.483274459838867	-45.5565299987793	12.235088348388672	-0.04912595450878143	0.441155344247818	1.4550249576568604	91
92	1512722578.6508975	-0.4016016125679016	0.5237035751342773	0.8066365122795105	27.06069374084473	33.19980239868164	32.924999237060554	1013.3369140625	-9.17852783203125	-45.21615219116211	11.907590866088867	-1.5075666904449463	0.0053029805421829215	1.4186784029006958	92
93	1512722578.6936874	-0.3112597763538361	0.3862829804420471	0.8146786093711853	27.06069374084473	33.19980239868164	32.924999237060554	1013.331787109375	-10.943475723266602	-45.23747634887695	12.138998031616213	-1.3197256326675415	0.11342612653970717	1.3615626096725464	93
94	1512722578.7432325	-0.2465888112783432	0.2656150758266449	0.8071239590644836	26.64533805847168	33.162403106689446	32.924999237060554	1013.328125	-11.958856582641602	-46.05772399902344	12.08010959625244	0.585563063621521	0.7627758979797363	1.3539267778396606	94
95	1512722578.7870312	-0.22067107260227206	0.32339972257614136	0.7625274658203125	27.44095039367676	33.068897247314446	32.929168701171875	1013.330078125	-13.266776084899902	-46.20611190795898	11.760056495666506	1.2923341989517212	1.4383928775787354	1.19326913356781	95
96	1512722578.8305774	-0.2522660195827484	0.4382406175136566	0.7052586674690247	27.44095039367676	33.068897247314446	32.920833587646484	1013.330322265625	-15.406451225280762	-44.95004653930664	11.565194129943848	0.3549613952636719	1.8281248807907104	0.900970220565796	96
97	1512722578.8731887	-0.3120002746582031	0.4566928446292877	0.677477240562439	28.145885467529297	33.19980239868164	32.92708206176758	1013.328125	-17.46809959411621	-43.76460647583008	10.839639663696287	-0.9910801649093628	1.4924544095993042	0.8911963701248169	97
98	1512722578.9203856	-0.3356964588165283	0.35156363248825073	0.6282504796981812	28.145885467529297	33.19980239868164	32.918750762939446	1013.337158203125	-20.043123245239254	-43.14501953125	10.094261169433594	-1.2781867980957031	0.7930137515068054	1.2442764043807983	98
99	1512722578.9803574	-0.3588990271091461	0.2675574123859405	0.6760150790214539	26.29725646972656	33.181102752685554	32.933334350585945	1013.33837890625	-22.712860107421875	-43.17975997924805	8.878578186035156	-0.19054126739501956	-0.2582853734493256	1.6926515102386477	99
100	1512722579.0297036	-0.22437359392642972	0.2461916655302048	0.5261414647102356	26.29725646972656	33.181102752685554	32.92708206176758	1013.340576171875	-24.401647567749023	-43.03463745117188	8.042064666748049	0.4307086765766144	-0.3111252188682556	1.689597249031067	100
101	1512722579.0818114	-0.17327862977981567	0.3406379818916321	0.5909649133682251	26.88519096374512	33.181102752685554	32.929168701171875	1013.34423828125	-24.932037353515625	-42.03982162475586	8.04051399230957	-0.24521368741989136	0.4258836805820465	1.3530104160308838	101
102	1512722579.1290462	-0.1688355803489685	0.38434064388275146	0.65871262550354	26.42595863342285	33.181102752685554	32.93541717529297	1013.3486328125	-25.51082992553711	-40.64717483520508	8.20755672454834	-1.0857642889022827	1.403878927230835	0.996265172958374	102
103	1512722579.172662	-0.25350022315979004	0.346707820892334	0.726460337638855	26.42595863342285	33.181102752685554	32.924999237060554	1013.35107421875	-26.856534957885746	-40.2945442199707	7.6737847328186035	-0.8805135488510132	1.7484070062637331	0.9360949993133544	103
104	1512722579.2155669	-0.345569908618927	0.3064042329788208	0.7681324481964111	26.525409698486328	33.14369964599609	32.924999237060554	1013.352294921875	-27.93655014038086	-40.94014739990234	6.109374523162843	0.059913493692874915	1.3513445854187012	1.2885642051696775	104
105	1512722579.2590835	-0.4423294961452484	0.42391583323478704	0.8651238083839417	26.525409698486328	33.14369964599609	32.9375	1013.3525390625	-30.15581512451172	-40.45984649658203	4.391021251678467	0.22026559710502625	0.3941186964511871	1.5567339658737185	105
106	1512722579.3068645	-0.42011427879333496	0.4991815388202667	0.8283255696296692	27.14259529113769	33.162403106689446	32.92291641235352	1013.35009765625	-31.71252822875977	-39.60273361206055	3.4893798828125	-0.9034209847450256	-0.10068213939666748	1.5310776233673096	106
107	1512722579.366863	-0.3033610284328461	0.4159036874771118	0.8007878661155701	27.113344192504886	33.181102752685554	32.918750762939446	1013.347900390625	-32.45587158203125	-38.76580810546875	2.9961121082305913	-1.4452584981918335	0.0822720006108284	1.421732783317566	107
108	1512722579.41027	-0.2739875614643097	0.3651600182056427	0.8207710385322571	27.113344192504886	33.181102752685554	32.9375	1013.349609375	-32.37346649169922	-38.453773498535156	2.6607580184936523	-0.6557151079177856	0.7120741009712219	1.2534394264221191	108
109	1512722579.452588	-0.2720128893852234	0.36200371384620667	0.8600062131881714	27.256671905517575	33.19980239868164	32.933334350585945	1013.354248046875	-32.919708251953125	-38.49076461791992	2.1816439628601074	0.15520846843719482	1.4686306715011597	1.142261981964111	109
110	1512722579.4995413	-0.377905398607254	0.5965413451194763	1.0427788496017456	27.256671905517575	33.19980239868164	32.92708206176758	1013.35400390625	-33.587844848632805	-38.05625915527344	1.4644601345062256	-0.360972672700882	1.6424218416213991	1.0042064189910889	110
111	1512722579.5418954	-0.3961712121963501	0.4880130589008331	0.8451406955718994	26.934917449951172	33.162403106689446	32.933334350585945	1013.352294921875	-34.663333892822266	-37.35716247558594	0.1450583040714264	-1.1276085376739502	1.26337993144989	1.0707906484603882	111
112	1512722579.5865824	-0.4048104584217072	0.3838550746440888	0.7861660718917847	26.934917449951172	33.162403106689446	32.931251525878906	1013.354736328125	-35.67682647705078	-36.81828308105469	-1.82128381729126	-0.9608423113822936	0.5056016445159912	1.4281468391418457	112
113	1512722579.6334698	-0.46380415558815	0.40109333395957947	0.9811235070228576	26.54296112060547	33.19980239868164	32.9375	1013.35986328125	-36.657470703125	-36.35002517700195	-3.0127108097076416	-0.06653561443090439	-0.3004350662231445	1.7497674226760864	113
114	1512722579.6777287	-0.3401395380496979	0.4168748557567597	0.8583002686500549	26.54296112060547	33.19980239868164	32.931251525878906	1013.357177734375	-37.28318786621094	-35.31259536743164	-3.166114091873169	0.044030986726284034	-0.25309300422668457	1.744575023651123	114
115	1512722579.7204573	-0.2739875614643097	0.4562072455883026	0.8258886337280273	26.94369125366211	33.255905151367195	32.931251525878906	1013.35205078125	-36.54694366455078	-33.84819793701172	-2.9609038829803467	-0.5427050590515137	0.326007217168808	1.3890514373779297	115
116	1512722579.7714074	-0.2939812541007996	0.4824288487434387	0.8950985074043274	26.94369125366211	33.255905151367195	32.929168701171875	1013.356201171875	-36.01943588256836	-32.15111541748047	-3.081028938293457	-0.9984105229377748	1.0602673292160034	1.128517508506775	116
117	1512722579.814	-0.3403863608837128	0.3816699385643005	0.9199556112289428	26.61023712158203	33.125	32.92708206176758	1013.362548828125	-35.857887268066406	-31.93856239318848	-3.816569805145264	-0.4351927936077118	1.092643141746521	1.2522176504135132	117
118	1512722579.8612127	-0.43023452162742615	0.41954556107521057	0.8975354433059692	26.49616050720215	33.181102752685554	32.933334350585945	1013.360107421875	-36.156898498535156	-30.96837615966797	-5.245362281799316	0.11672396212816237	0.5172080993652344	1.4861791133880615	118
119	1512722579.903699	-0.4406016170978546	0.5020950436592102	0.9028968811035156	26.49616050720215	33.181102752685554	32.92708206176758	1013.365478515625	-36.34529495239258	-29.932905197143555	-6.1675214767456055	-0.4748990535736084	-0.047842297703027725	1.6138498783111572	119
120	1512722579.9535675	-0.41468387842178345	0.5057368874549866	0.9170312881469728	26.159780502319336	33.162403106689446	32.931251525878906	1013.3779296875	-36.1948471069336	-28.749608993530273	-6.302722930908202	-1.186557054519653	-0.3926757276058197	1.613239049911499	120
121	1512722579.9973161	-0.33100658655166626	0.39162442088127136	0.8763338923454285	26.159780502319336	33.162403106689446	32.931251525878906	1013.3896484375	-35.26546859741211	-28.203710556030273	-6.225025653839111	-0.688090980052948	-0.2256040871143341	1.5707838535308838	121
122	1512722580.0404587	-0.30953192710876465	0.3756000995635986	0.9933083653450012	25.72394752502441	33.162403106689446	32.931251525878906	1013.391845703125	-34.252487182617195	-27.59796524047852	-5.671512126922607	0.2691348195075989	0.2575903236865997	1.4834301471710205	122
123	1512722580.0878348	-0.28262680768966675	0.4217307269573212	0.8268634080886841	25.72394752502441	33.162403106689446	32.93541717529297	1013.39453125	-33.28397750854492	-26.594867706298828	-5.391856670379639	0.2288177311420441	0.9270986318588256	1.2729871273040771	123
124	1512722580.1303012	-0.32138001918792725	0.4931116998195648	0.8197962045669556	26.218280792236328	33.27460479736328	32.924999237060554	1013.39697265625	-32.6865234375	-25.926067352294922	-6.0513105392456055	-0.7433742880821228	1.1299059391021729	1.090032935142517	124
125	1512722580.1739786	-0.4097471833229065	0.4855851233005524	0.8914430737495422	26.218280792236328	33.27460479736328	32.92708206176758	1013.393310546875	-32.41221237182617	-24.96193122863769	-7.182471752166747	-1.2167948484420776	0.7951517701148987	1.2060973644256592	125
126	1512722580.222369	-0.3801268935203552	0.35253480076789856	0.787628173828125	27.01389312744141	33.162403106689446	32.93541717529297	1013.39697265625	-32.06262588500977	-24.625307083129886	-6.89024829864502	-0.4761207699775696	0.1073174700140953	1.485262751579285	126
127	1512722580.2658179	-0.3937028646469116	0.3964802622795105	0.9009472131729126	27.01389312744141	33.162403106689446	32.931251525878906	1013.399169921875	-31.95325469970703	-24.491832733154297	-7.1767191886901855	0.13871511816978455	-0.20269663631916046	1.6691331863403318	127
128	1512722580.3083308	-0.33693066239356995	0.4775729775428772	0.8992413878440857	26.17440414428711	33.218505859375	32.929168701171875	1013.39453125	-31.119155883789066	-24.10025978088379	-7.255463123321532	-0.20856177806854248	0.07402532547712326	1.4675476551055908	128
129	1512722580.3519256	-0.27102553844451904	0.4532937407493591	0.8239390254020691	26.17440414428711	33.125	32.933334350585945	1013.39404296875	-29.68448257446289	-23.389503479003906	-7.33743953704834	-0.8185107111930847	0.7340652346611023	1.1880768537521362	129
130	1512722580.399335	-0.2971901297569275	0.4190599620342255	0.8665859699249268	26.70676422119141	33.125	32.92708206176758	1013.39794921875	-28.86476325988769	-22.889751434326172	-6.88225793838501	-0.5811895728111267	1.178775191307068	1.0863677263259888	130
131	1512722580.4494224	-0.33100658655166626	0.3552055358886719	0.8295440673828125	26.51955986022949	33.181102752685554	32.92708206176758	1013.399658203125	-28.68653106689453	-22.58699607849121	-6.896270275115968	0.2929585874080658	1.156783938407898	1.21220600605011	131
132	1512722580.493796	-0.3746965229511261	0.422701895236969	0.8429474234580994	26.51955986022949	33.181102752685554	32.924999237060554	1013.400634765625	-28.622955322265625	-21.99557304382324	-7.64228630065918	0.3201420903205872	0.8818946480751038	1.3239943981170654	132
133	1512722580.541154	-0.3781522214412689	0.4804865121841431	0.8441658616065979	26.32650756835937	33.125	32.924999237060554	1013.40380859375	-28.70483016967773	-21.061988830566406	-8.88127326965332	-0.5738592147827148	0.5492784976959229	1.327048659324646	133
134	1512722580.5850966	-0.3574180006980896	0.4367838501930237	0.8312499523162842	26.32650756835937	33.125	32.929168701171875	1013.40380859375	-28.89859962463379	-20.429916381835934	-8.773146629333496	-0.8521082997322083	0.4158044159412384	1.3343790769577026	134
135	1512722580.6276536	-0.32705724239349365	0.3668595850467682	0.8349054455757141	26.63656234741211	33.23720550537109	32.933334350585945	1013.407470703125	-28.0463809967041	-20.272491455078125	-8.35826587677002	-0.2665939927101135	0.4533726274967194	1.3914949893951416	135
136	1512722580.6714065	-0.3322407901287079	0.3938095569610596	0.8972918391227722	26.63656234741211	33.23720550537109	32.924999237060554	1013.40771484375	-27.19312286376953	-19.935447692871094	-8.542531967163086	0.35679399967193604	0.7575835585594177	1.3588136434555054	136
137	1512722580.717418	-0.3226141929626465	0.4564500451087952	0.8724346756935121	26.929067611694336	33.162403106689446	32.931251525878906	1013.408447265625	-26.693544387817386	-19.631092071533203	-8.902400970458984	0.007073648273944855	1.0300294160842896	1.213733196258545	137
138	1512722580.7671213	-0.3482851088047028	0.4722315669059754	0.837342381477356	27.58135223388672	33.181102752685554	32.933334350585945	1013.410888671875	-26.57028961181641	-19.05255126953125	-8.62985897064209	-0.630975067615509	0.9674158096313475	1.1486760377883911	138
139	1512722580.8120391	-0.4072788059711456	0.436055451631546	0.8821825981140137	27.58135223388672	33.181102752685554	32.929168701171875	1013.410888671875	-26.49937438964844	-18.67246627807617	-8.892980575561523	-0.6480793356895447	0.5874575972557068	1.3041412830352783	139
140	1512722580.8546705	-0.3860509693622589	0.378270834684372	0.8375861048698425	26.899816513061523	33.181102752685554	32.92708206176758	1013.41357421875	-26.1257381439209	-18.446910858154297	-8.235810279846191	-0.1520567536354065	0.15465953946113584	1.5481818914413452	140
141	1512722580.8985207	-0.3487787544727325	0.3930811583995819	0.8293004035949707	26.899816513061523	33.181102752685554	32.92708206176758	1013.409912109375	-25.17564582824707	-18.233665466308594	-7.724062919616699	0.052583105862140656	0.004386685788631439	1.5799468755722046	141
142	1512722580.9454994	-0.31743064522743225	0.457421213388443	0.807611346244812	26.81206512451172	33.181102752685554	32.924999237060554	1013.417236328125	-24.28432464599609	-17.772775650024414	-7.919527053833008	-0.5546169281005859	0.3287561237812042	1.318496584892273	142
143	1512722580.989801	-0.29077237844467163	0.445281594991684	0.8290566802024841	26.81206512451172	33.181102752685554	32.93541717529297	1013.415283203125	-23.08334350585937	-17.092185974121097	-8.334529876708983	-0.9342696666717528	0.7859888076782227	1.1505086421966553	143
144	1512722581.0330586	-0.3023736774921417	0.3770568668842316	0.703552782535553	28.7689208984375	33.106300354003906	32.92708206176758	1013.4150390625	-22.90711975097656	-16.48124122619629	-6.896613597869872	-0.5384290218353271	1.0688194036483765	1.14592707157135	144
145	1512722581.0802686	-0.3487787544727325	0.38434064388275146	0.8734095096588135	28.7689208984375	33.106300354003906	32.92291641235352	1013.410888671875	-22.72396469116211	-16.787788391113278	-6.408546447753906	-0.010946877300739288	0.9588636159896852	1.2485524415969849	145
146	1512722581.1313245	-0.3667977750301361	0.43289914727211	0.7829979658126831	25.73564910888672	33.19980239868164	32.92291641235352	1013.415771484375	-22.47903633117676	-16.037652969360348	-6.57342529296875	-0.3768551647663117	0.6219714879989624	1.3242998123168943	146
147	1512722581.1749802	-0.3593927323818207	0.4528081715106964	0.8536700606346129	25.73564910888672	33.125	32.91666793823242	1013.41162109375	-22.04829406738281	-15.943360328674315	-5.802757740020753	-1.0188745260238647	0.35807764530181885	1.336517095565796	147
148	1512722581.2226286	-0.3907408118247986	0.4530509412288666	0.8902245759963989	26.49908447265625	33.125	32.929168701171875	1013.412841796875	-21.33513832092285	-16.472627639770508	-5.60020637512207	-0.9272447228431702	0.18886798620224	1.3817211389541626	148
149	1512722581.2660158	-0.3149622976779938	0.3518064618110657	0.8383171558380127	27.455575942993164	33.29330825805664	32.931251525878906	1013.40625	-20.359127044677734	-17.132099151611328	-4.9871559143066415	-0.11876459419727325	0.33791908621788025	1.4159295558929443	149
150	1512722581.3097992	-0.29620277881622314	0.3921099901199341	0.8509894013404846	27.455575942993164	33.29330825805664	32.931251525878906	1013.40087890625	-19.51061248779297	-17.457456588745114	-4.6015892028808585	0.27157828211784363	0.8119505643844604	1.289785861968994	150
151	1512722581.35957	-0.2875635325908661	0.44018295407295227	0.8022500276565552	26.28555679321289	33.14369964599609	32.92708206176758	1013.401611328125	-18.762269973754886	-17.46949577331543	-4.535261154174805	-0.40403866767883295	1.1161614656448364	1.0857568979263306	151
152	1512722581.4088402	-0.359145849943161	0.4688324630260468	0.8344180583953857	26.28555679321289	33.14369964599609	32.920833587646484	1013.400390625	-18.261838912963867	-17.664777755737305	-4.905275344848633	-1.0637731552124023	0.9310692548751832	1.185938835144043	152
153	1512722581.459177	-0.40036740899086	0.3828839063644409	0.821745753288269	27.05191802978516	33.19980239868164	32.92291641235352	1013.404541015625	-18.01601219177246	-18.005619049072266	-5.1555657386779785	-0.5256008505821228	0.2184949517250061	1.5014506578445437	153
154	1512722581.5170267	-0.3734623491764069	0.3593330085277557	0.8083424568176271	27.976232528686523	33.162403106689446	32.920833587646484	1013.406982421875	-17.67272186279297	-18.147655487060547	-4.638689994812012	0.09748170524835588	-0.24820610880851746	1.659664750099182	154
155	1512722581.560441	-0.3166901469230652	0.4552360773086548	0.8478213548660278	27.976232528686523	33.162403106689446	32.931251525878906	1013.412353515625	-16.573461532592773	-18.370540618896484	-3.893883228302002	-0.2959155142307281	0.029432155191898342	1.4538031816482544	155
156	1512722581.6028118	-0.2794179320335388	0.4450387954711914	0.7583846449851991	26.56928634643555	33.181102752685554	32.92708206176758	1013.41357421875	-15.32290744781494	-18.398555755615234	-3.0990867614746094	-0.7455123066902161	0.5596632361412048	1.2094571590423584	156
157	1512722581.6462164	-0.27472808957099915	0.3921099901199341	0.8137037754058838	26.56928634643555	33.181102752685554	32.931251525878906	1013.411376953125	-14.451342582702635	-18.759981155395508	-2.70476508140564	-0.6135654449462891	1.113718032836914	1.0936981439590454	157
158	1512722581.6922278	-0.3120002746582031	0.3654028177261353	0.8234516978263855	27.08994483947754	33.19980239868164	32.929168701171875	1013.415283203125	-13.856618881225586	-19.75794792175293	-2.6713783740997314	0.045558162033557885	1.166252374649048	1.148370623588562	158
159	1512722581.7363706	-0.3895066678524017	0.43071404099464417	0.8641490340232849	27.08994483947754	33.19980239868164	32.92708206176758	1013.41796875	-13.978365898132324	-19.811452865600586	-1.8510891199111936	0.1109207347035408	0.8641795516014099	1.271154522895813	159
160	1512722581.7787225	-0.3882724642753601	0.458635151386261	0.8102920055389404	27.70127868652344	33.27460479736328	32.92708206176758	1013.412841796875	-14.55394458770752	-19.79039764404297	-1.565251708030701	-0.4587111175060272	0.4316869080066681	1.3725581169128418	160
161	1512722581.822071	-0.3724749684333801	0.4377550184726715	0.7981072068214417	27.70127868652344	33.27460479736328	32.933334350585945	1013.41796875	-14.456708908081055	-20.002580642700195	-1.9359925985336304	-0.9046427011489868	0.07524705678224564	1.431506633758545	161
162	1512722581.8644755	-0.3406331837177277	0.3857974112033844	0.8176029324531555	26.92029190063477	33.125	32.929168701171875	1013.420166015625	-14.020084381103516	-20.449432373046875	-1.5872856378555298	-0.6251718401908875	-0.028294607996940613	1.4754889011383057	162
163	1512722581.911452	-0.3110128939151764	0.3741433322429657	0.8624431490898132	26.92029190063477	33.125	32.924999237060554	1013.42333984375	-13.324091911315918	-21.31507682800293	-0.629925012588501	0.08159921318292618	0.31317904591560364	1.430590271949768	163
164	1512722581.9538152	-0.283860981464386	0.41784602403640747	0.8368549942970276	26.87641525268555	33.27460479736328	32.933334350585945	1013.427001953125	-12.703566551208494	-22.15058708190918	-0.4801873862743378	0.09351108223199844	0.8055364489555359	1.2567992210388184	164
165	1512722581.9973047	-0.2944749295711517	0.4462527632713318	0.7993256449699402	26.87641525268555	33.27460479736328	32.929168701171875	1013.4296875	-11.893486976623535	-22.13262176513672	-0.12396028637886047	-0.4324439167976379	1.1467046737670898	1.0594897270202637	165
166	1512722582.0368965	-0.3396458625793457	0.4341131150722504	0.7990819811820984	27.82998085021973	33.23720550537109	32.929168701171875	1013.429443359375	-12.443488121032715	-22.60388946533203	-0.11575844138860705	-0.8102640509605408	1.0917268991470337	1.0677363872528076	166
167	1512722582.0803206	-0.3880256414413452	0.4088627099990845	0.8290566802024841	27.82998085021973	33.23720550537109	32.924999237060554	1013.42333984375	-13.005716323852539	-23.22867584228516	0.5632295608520508	-0.7027517557144165	0.6619831323623657	1.2393895387649536	167
168	1512722582.1298735	-0.40086111426353455	0.4018217027187347	0.8500145673751831	27.160144805908203	33.106300354003906	32.918750762939446	1013.422119140625	-13.334460258483887	-23.878406524658203	1.117816925048828	-0.3197392523288727	0.12411626428365707	1.4702966213226318	168
169	1512722582.1734896	-0.33668383955955505	0.4054636061191559	0.8073676228523254	27.575502395629886	33.23720550537109	32.92708206176758	1013.4228515625	-13.111788749694824	-24.34762382507324	1.516644835472107	-0.3350108861923218	0.05295046418905258	1.488622546195984	169
170	1512722582.2177467	-0.2986711263656616	0.4248870015144348	0.8721910119056702	27.575502395629886	33.23720550537109	32.924999237060554	1013.424072265625	-12.649665832519533	-24.8853759765625	1.82175087928772	-0.5622527599334717	0.4289380013942719	1.309028148651123	170
171	1512722582.2763946	-0.28855088353157043	0.4176032245159149	0.8361238837242126	26.94076728820801	33.125	32.92291641235352	1013.426513671875	-12.419614791870115	-25.514896392822266	2.0264742374420166	-0.5014716386795044	1.0541586875915527	1.1159946918487549	171
172	1512722582.3240116	-0.316196471452713	0.3923527896404265	0.8254012465476991	26.94076728820801	33.125	32.92708206176758	1013.428955078125	-12.799294471740724	-26.19484138488769	1.955859422683716	-0.15938714146614075	1.1473156213760376	1.1199653148651123	172
173	1512722582.3735812	-0.3653167486190796	0.41638925671577454	0.818821370601654	27.525775909423828	33.218505859375	32.92708206176758	1013.42529296875	-13.683439254760742	-26.81169128417969	1.740336775779724	-0.2293311953544617	0.8076745271682739	1.242138385772705	173
174	1512722582.4170372	-0.3900003135204315	0.4396973550319672	0.8185777068138123	26.434734344482425	33.05019760131836	32.92708206176758	1013.4267578125	-14.496597290039062	-27.14346122741699	1.6263890266418457	-0.555533230304718	0.35257986187934875	1.4440293312072754	174
175	1512722582.4604619	-0.3769180178642273	0.4190599620342255	0.8207710385322571	26.434734344482425	33.05019760131836	32.931251525878906	1013.431640625	-14.885661125183105	-27.59201240539551	2.329482078552246	-0.6419706344604492	-0.016688168048858643	1.490455150604248	175
176	1512722582.5352314	-0.34705090522766113	0.3770568668842316	0.8293004035949707	26.864715576171875	33.181102752685554	32.92708206176758	1013.435791015625	-14.695313453674315	-28.546314239501953	2.656137228012085	0.0027975887060165405	-0.047842297703027725	1.5506253242492676	176
177	1512722582.5787902	-0.3115065991878509	0.41784602403640747	0.8314936757087708	26.864715576171875	33.14369964599609	32.931251525878906	1013.44189453125	-14.280198097229006	-29.11194610595703	3.2028205394744877	-0.0256076455116272	0.2725565135478973	1.4070720672607422	177
178	1512722582.6269054	-0.2742343842983246	0.4503802359104157	0.8176029324531555	26.51663589477539	33.14369964599609	32.92708206176758	1013.437255859375	-13.756547927856445	-29.553407669067386	3.1664493083953857	-0.5845493078231812	0.8672338724136353	1.0689581632614136	178
179	1512722582.6703672	-0.2944749295711517	0.41638925671577454	0.8200399279594421	27.42047500610352	33.181102752685554	32.929168701171875	1013.43896484375	-13.610566139221193	-30.38393592834473	2.681795597076416	-0.6621292233467102	1.2377235889434814	1.0167291164398191	179
180	1512722582.7185454	-0.3438420593738556	0.3879825174808502	0.8241827487945557	27.42047500610352	33.181102752685554	32.924999237060554	1013.44287109375	-13.991368293762207	-30.81052017211914	2.6030161380767822	-0.21894648671150208	1.1091364622116089	1.1318771839141846	180
181	1512722582.7609572	-0.4104876816272736	0.4151753187179565	0.8334432244300842	27.44095039367676	33.125	32.93541717529297	1013.444580078125	-15.265748023986815	-31.42512130737305	2.354277849197388	-0.07539316266775131	0.5208732485771179	1.4461673498153689	181
182	1512722582.8045244	-0.3895066678524017	0.4411540925502777	0.8202835917472839	27.44095039367676	33.125	32.924999237060554	1013.44091796875	-15.9495849609375	-31.82079887390137	1.8922659158706665	-0.39487570524215704	0.0670003667473793	1.4953420162200928	182
183	1512722582.8540568	-0.3477914333343506	0.43265634775161743	0.8112668395042419	26.771114349365234	33.125	32.929168701171875	1013.44091796875	-16.19312858581543	-32.2154541015625	0.9462814927101136	-0.7470394968986511	-0.022491388022899628	1.3811101913452148	183
184	1512722582.8979096	-0.30212682485580444	0.3984226286411285	0.8280819058418274	26.771114349365234	33.125	32.92708206176758	1013.446044921875	-16.504711151123047	-32.39654922485352	1.908525466918945	-0.5937123298645021	0.3492200970649719	1.336517095565796	184
185	1512722582.9459062	-0.3008926510810852	0.3889537155628204	0.8395356535911559	26.78573989868164	33.125	32.924999237060554	1013.43359375	-16.32468032836914	-33.04930877685547	2.1528031826019287	-0.16519035398960116	0.7148230075836182	1.2497742176055908	185
186	1512722582.989775	-0.3013863265514374	0.4018217027187347	0.8261323571205139	26.78573989868164	33.218505859375	32.924999237060554	1013.428466796875	-16.458061218261722	-33.30525588989258	2.2285399436950684	-0.021331585943698883	1.017506718635559	1.155090093612671	186
187	1512722583.0327	-0.3263167440891266	0.4212451279163361	0.8144348859786987	26.04570388793945	33.218505859375	32.924999237060554	1013.432861328125	-17.52597999572754	-33.386802673339844	1.74932062625885	-0.17404790222644806	1.0746226310729978	1.1364587545394895	187
188	1512722583.0792866	-0.3667977750301361	0.44188249111175537	0.8232079744338989	26.80036544799805	33.181102752685554	32.933334350585945	1013.4287109375	-18.772031784057614	-33.733272552490234	0.7688819169998169	-0.5650016665458679	0.7734660506248474	1.2033485174179075	188
189	1512722583.122813	-0.3941965401172638	0.4299856424331665	0.8263760209083557	26.80036544799805	33.181102752685554	32.924999237060554	1013.42236328125	-19.43726348876953	-34.226829528808594	0.290027529001236	-0.7577295899391174	0.32264748215675354	1.340487718582153	189
190	1512722583.1659567	-0.3734623491764069	0.4006077349185944	0.8234516978263855	25.987201690673828	33.255905151367195	32.933334350585945	1013.42236328125	-20.223299026489254	-34.913070678710945	0.04145953059196472	-0.6193686127662659	-0.022796820849180218	1.4819029569625854	190
191	1512722583.2142632	-0.32903191447258	0.3751145303249359	0.827594518661499	25.987201690673828	33.255905151367195	32.924999237060554	1013.422607421875	-20.489978790283203	-35.073081970214844	-0.34475988149642944	-0.0659247487783432	0.04500921815633774	1.4965637922286987	191
192	1512722583.2591631	-0.29003188014030457	0.4093482792377472	0.8346617221832275	27.86800575256348	33.23720550537109	32.920833587646484	1013.420166015625	-20.30154800415039	-34.844005584716804	-0.3682613670825958	0.041892968118190765	0.4875811040401459	1.3105553388595579	192
193	1512722583.3065233	-0.2836141586303711	0.440668523311615	0.8232079744338989	27.86800575256348	33.23720550537109	32.929168701171875	1013.42578125	-20.426340103149414	-34.834835052490234	-0.4611861407756805	-0.4388580024242401	1.0501879453659058	1.0976687669754028	193
194	1512722583.349059	-0.3240951895713806	0.4394545555114746	0.8119979500770569	25.791223526000977	33.181102752685554	32.92708206176758	1013.42578125	-21.0721378326416	-34.678333282470696	-0.6508164405822754	-0.8035445213317871	1.1674741506576538	1.0249757766723633	194
195	1512722583.3927884	-0.3672914206981659	0.3889537155628204	0.8239390254020691	25.791223526000977	33.181102752685554	32.92708206176758	1013.430419921875	-21.83797645568848	-35.266387939453125	-1.0923714637756348	-0.4742881655693054	0.8800620436668396	1.2259504795074463	195
196	1512722583.4424002	-0.3944433629512787	0.38458344340324396	0.8370987176895142	27.634002685546875	33.23720550537109	32.931251525878906	1013.435546875	-22.76739883422852	-35.052913665771484	-1.828857421875	0.036395184695720666	0.30279433727264404	1.5274124145507812	196
197	1512722583.4863524	-0.3682788014411926	0.4299856424331665	0.8219894766807556	27.634002685546875	33.181102752685554	32.918750762939446	1013.434326171875	-23.43492317199707	-34.568737030029304	-2.6881277561187744	-0.14594809710979462	0.03004302084445953	1.5139734745025637	197
198	1512722583.5348828	-0.33075976371765137	0.4637338221073151	0.8088298439979553	25.50749397277832	33.181102752685554	32.931251525878906	1013.43701171875	-23.80642890930176	-34.28424453735352	-2.869191169738769	-0.8838732838630676	0.13877704739570618	1.300781488418579	198
199	1512722583.5776286	-0.299658477306366	0.4015789031982422	0.8268634080886841	27.54332733154297	33.125	32.929168701171875	1013.43359375	-23.93022346496582	-34.36725234985352	-2.8076305389404297	-0.7781935930252075	0.4579541385173798	1.2509959936141968	199
200	1512722583.6211135	-0.2986711263656616	0.36321771144866943	0.8407540917396545	27.54332733154297	33.125	32.929168701171875	1013.435791015625	-24.06613540649414	-34.49034881591797	-3.051497459411621	-0.08516700565814972	0.7887376546859741	1.2283939123153689	200
201	1512722583.6672025	-0.3127407431602478	0.3848262429237366	0.8280819058418274	27.03729248046875	33.181102752685554	32.92708206176758	1013.434326171875	-24.10491943359375	-34.77548599243164	-2.64374041557312	0.2981509268283844	1.0028460025787354	1.205486536026001	201
202	1512722583.7108948	-0.3463104367256165	0.4525653421878815	0.8129726648330688	27.03729248046875	33.181102752685554	32.929168701171875	1013.431884765625	-24.728612899780273	-34.189586639404304	-3.365841150283813	-0.27025917172431946	0.9371778964996338	1.1630313396453855	202
203	1512722583.7533467	-0.3727218508720398	0.4707747995853424	0.8139474987983704	27.77733039855957	33.218505859375	32.924999237060554	1013.42626953125	-25.60286521911621	-33.713390350341804	-4.817645072937012	-0.9938290119171144	0.6497658491134644	1.1783030033111572	203
204	1512722583.7977474	-0.3875319957733154	0.4059491753578186	0.8268634080886841	27.77733039855957	33.218505859375	32.931251525878906	1013.42333984375	-26.222909927368164	-33.544479370117195	-5.606085300445557	-0.8820406794548035	0.1589355766773224	1.3667548894882202	204
205	1512722583.8464935	-0.3621079027652741	0.3612753450870514	0.8351490497589111	29.94771385192871	33.162403106689446	32.933334350585945	1013.42724609375	-26.51330947875977	-33.31455612182617	-6.087841987609862	-0.06623018532991409	-0.03745758533477783	1.5255799293518066	205
206	1512722583.8976018	-0.3120002746582031	0.393566757440567	0.824670135974884	29.94771385192871	33.19980239868164	32.924999237060554	1013.42724609375	-26.555910110473636	-32.78002548217773	-6.254079818725586	0.1463509202003479	0.23254483938217166	1.4043231010437012	206
207	1512722583.9404907	-0.28435465693473816	0.4639765918254852	0.8185777068138123	27.33564758300781	33.19980239868164	32.931251525878906	1013.427734375	-26.635656356811523	-32.228546142578125	-6.167403221130371	-0.4284732937812805	0.8043147325515747	1.1486760377883911	207
208	1512722583.9872599	-0.3031141757965088	0.4379977881908417	0.8205273151397705	25.98135185241699	33.218505859375	32.931251525878906	1013.421142578125	-26.68586158752441	-31.790639877319336	-6.515130043029785	-0.7928543686866759	1.0923377275466921	1.0292518138885498	208
209	1512722584.0308087	-0.3480382859706879	0.3836122453212738	0.8268634080886841	25.98135185241699	33.218505859375	32.924999237060554	1013.414306640625	-27.14397430419922	-31.35446929931641	-6.509200572967528	-0.3918213546276093	0.9765787124633788	1.2079299688339231	209
210	1512722584.0737689	-0.3791395425796509	0.3865257799625397	0.8317373394966125	26.35283279418945	33.106300354003906	32.924999237060554	1013.412353515625	-27.570087432861328	-31.467937469482425	-7.850594520568848	0.01806922256946564	0.5990639925003052	1.355148434638977	210
211	1512722584.1220748	-0.3803737163543701	0.42755770683288574	0.8205273151397705	26.35283279418945	33.106300354003906	32.931251525878906	1013.416748046875	-27.87431716918945	-30.968191146850586	-8.114100456237793	-0.2128378450870514	0.17939957976341248	1.4394478797912598	211
212	1512722584.1671653	-0.3487787544727325	0.4537793397903442	0.8156533241271973	27.3005485534668	33.14369964599609	32.931251525878906	1013.4111328125	-28.011892318725586	-30.148778915405273	-8.331932067871094	-0.763532817363739	0.1027359887957573	1.3792777061462402	212
213	1512722584.2147586	-0.3226141929626465	0.4108050465583801	0.8258886337280273	27.3005485534668	33.14369964599609	32.924999237060554	1013.415771484375	-28.00770568847656	-29.71086120605469	-8.829092025756836	-0.6932833194732666	0.2646152675151825	1.3215508460998535	213
214	1512722584.2644439	-0.3013863265514374	0.37317219376564026	0.837342381477356	27.455575942993164	33.19980239868164	32.929168701171875	1013.4189453125	-27.578643798828125	-29.482118606567386	-8.982555389404297	-0.05889980122447014	0.6137247681617737	1.2705436944961548	214
215	1512722584.3078482	-0.3063230514526367	0.4023073017597199	0.8283255696296692	27.455575942993164	33.19980239868164	32.93541717529297	1013.419677734375	-27.504150390625	-29.001176834106445	-8.673477172851562	0.11000444740056993	0.892279326915741	1.1951017379760742	215
216	1512722584.3502872	-0.33075976371765137	0.4450387954711914	0.8176029324531555	25.60694694519043	33.255905151367195	32.931251525878906	1013.422607421875	-27.96133232116699	-28.25893592834473	-8.473461151123049	-0.28033846616744995	0.9942938089370728	1.11752188205719	216
217	1512722584.394157	-0.36013320088386536	0.4477095305919647	0.8183339834213257	25.60694694519043	33.14369964599609	32.931251525878906	1013.426513671875	-28.31768226623535	-27.43844413757324	-8.812281608581543	-0.7109984159469604	0.7288728952407837	1.1587553024291992	217
218	1512722584.443387	-0.3845699429512024	0.4127473831176758	0.8263760209083557	26.5341854095459	33.14369964599609	32.931251525878906	1013.42529296875	-28.461095809936523	-27.147253036499023	-9.468450546264648	-0.6227284073829651	0.3238691985607147	1.3523995876312256	218
219	1512722584.5040276	-0.3675382733345032	0.3884681165218353	0.8271070718765259	25.74734878540039	33.14369964599609	32.933334350585945	1013.42578125	-28.008472442626953	-26.89637756347656	-9.61934757232666	-0.2705646157264709	0.013549663126468658	1.4702966213226318	219
220	1512722584.5510967	-0.31743064522743225	0.41396135091781616	0.8266196846961975	25.74734878540039	33.14369964599609	32.9375	1013.42626953125	-28.06350898742676	-25.89381980895996	-9.929264068603516	-0.2256660163402557	0.2621718049049377	1.3673657178878784	220
221	1512722584.6008775	-0.2932407557964325	0.4304712414741516	0.8244264125823975	26.736013412475586	33.218505859375	32.929168701171875	1013.42529296875	-27.473108291625977	-25.39805603027344	-9.800250053405762	-0.470317542552948	0.7386467456817627	1.1624205112457275	221
222	1512722584.6443524	-0.3127407431602478	0.4100766479969025	0.821745753288269	26.63656234741211	33.162403106689446	32.929168701171875	1013.425537109375	-27.16928482055664	-24.93259620666504	-9.945878028869627	-0.43641453981399536	0.9606962203979492	1.0869786739349363	222
223	1512722584.6878095	-0.3406331837177277	0.4006077349185944	0.8249138593673706	26.63656234741211	33.162403106689446	32.933334350585945	1013.4208984375	-27.0059871673584	-24.72084617614746	-10.356131553649902	-0.2675102949142456	0.910299837589264	1.1413456201553345	223
224	1512722584.7303286	-0.3667977750301361	0.4134757518768311	0.8268634080886841	26.44351005554199	33.162403106689446	32.931251525878906	1013.421142578125	-27.120248794555664	-24.29148292541504	-11.146496772766113	-0.22536057233810425	0.570047914981842	1.2372515201568604	224
225	1512722584.779871	-0.374943345785141	0.4309568107128143	0.8254012465476991	26.44351005554199	33.162403106689446	32.9375	1013.423095703125	-26.87805938720703	-23.73162078857422	-11.392024993896484	-0.4147288203239441	0.28141406178474426	1.3239943981170654	225
226	1512722584.8223445	-0.3633420765399933	0.4023073017597199	0.8278381824493408	26.84131622314453	33.23720550537109	32.933334350585945	1013.42333984375	-26.68042755126953	-23.404977798461914	-11.38481330871582	-0.31607407331466675	0.06455690413713455	1.3982144594192505	226
227	1512722584.869608	-0.32532939314842224	0.4176032245159149	0.8180903196334839	26.84131622314453	33.23720550537109	32.933334350585945	1013.420654296875	-26.45271110534668	-22.96504211425781	-11.083495140075684	-0.4248080849647522	0.19161686301231384	1.3221617937088013	227
228	1512722584.9121635	-0.2964496314525604	0.4236730635166168	0.8251575231552124	26.89689064025879	33.23720550537109	32.933334350585945	1013.423583984375	-25.817331314086914	-22.42549705505371	-10.763330459594727	-0.58332759141922	0.5587469339370728	1.071707010269165	228
229	1512722584.9556885	-0.30410149693489075	0.4003649652004242	0.8346617221832275	26.89689064025879	33.23720550537109	32.93541717529297	1013.419189453125	-25.07215881347656	-21.75762939453125	-10.335176467895508	-0.3734953999519348	0.8589872121810913	1.0503267049789429	229
230	1512722584.9984338	-0.32878509163856506	0.3872541785240173	0.8302751779556274	27.06361961364746	33.31200790405273	32.93541717529297	1013.422119140625	-24.32169532775879	-21.28949546813965	-10.66175651550293	-0.016750097274780273	0.9258769750595092	1.0808700323104858	230
231	1512722585.0481575	-0.3554433286190033	0.4176032245159149	0.8176029324531555	27.06361961364746	33.31200790405273	32.93541717529297	1013.424560546875	-24.23519515991211	-21.294269561767575	-10.420953750610352	-0.13525795936584473	0.6925264000892639	1.1340152025222778	231
232	1512722585.091485	-0.3742028176784515	0.44989463686943054	0.8200399279594421	25.77659797668457	33.14369964599609	32.941665649414055	1013.42724609375	-24.33070945739746	-20.234657287597656	-10.691913604736328	-0.5744700431823729	0.31256818771362305	1.176164984703064	232
233	1512722585.1388953	-0.367044597864151	0.4302284419536591	0.8254012465476991	26.604387283325195	33.23720550537109	32.933334350585945	1013.424072265625	-23.96824073791504	-20.566007614135746	-10.676444053649902	-0.7277972102165222	0.1122043952345848	1.2338917255401611	233
234	1512722585.1826973	-0.33717748522758484	0.3862829804420471	0.827594518661499	26.604387283325195	33.23720550537109	32.9375	1013.421142578125	-23.45271873474121	-20.515186309814453	-10.402010917663574	-0.3591400682926178	0.0972382053732872	1.2760413885116575	234
235	1512722585.232425	-0.3085445761680603	0.3840978443622589	0.8307625651359558	26.718463897705078	33.19980239868164	32.945831298828125	1013.419921875	-22.770936965942386	-20.44574546813965	-10.517714500427246	0.059913493692874915	0.3815959692001343	1.1428728103637695	235
236	1512722585.2760448	-0.3006458282470703	0.4292572736740112	0.8224768638610841	26.718463897705078	33.19980239868164	32.933334350585945	1013.419677734375	-22.105995178222656	-19.98098564147949	-10.314857482910156	-0.07478229701519012	0.6992459297180176	0.966943621635437	236
237	1512722585.3186436	-0.3305129408836365	0.3641888797283173	0.8351490497589111	26.455209732055664	33.162403106689446	32.931251525878906	1013.42041015625	-21.533218383789066	-19.57986068725586	-10.124780654907227	0.2614990174770355	0.4836104810237885	0.349969744682312	237
238	1512722585.368044	-0.3630952537059784	0.4183316230773926	0.8375861048698425	26.455209732055664	33.162403106689446	32.9375	1013.41943359375	-21.226526260375977	-19.279827117919922	-10.156750679016113	0.05227767676115036	0.10640118271112442	-0.009829888120293616	238
239	1512722585.4104927	-0.342607855796814	0.4523225724697113	0.8054180741310121	26.25923156738281	33.181102752685554	32.94374847412109	1013.42333984375	-21.38478660583496	-19.132925033569336	-10.45558261871338	-0.4927278757095337	-0.08069998025894165	-0.15371593832969666	239
240	1512722585.4779828	-0.3364369869232178	0.41226181387901306	0.8222331404685974	26.56636047363281	33.19980239868164	32.929168701171875	1013.419921875	-21.208377838134766	-19.2127742767334	-10.730145454406738	-0.4255326986312866	-0.13262352347373962	-0.09934893250465393	240
241	1512722585.5435257	-0.3403863608837128	0.4222162961959839	0.8392919301986694	26.56636047363281	33.19980239868164	32.945831298828125	1013.424072265625	-21.43329620361328	-19.373254776000977	-9.796649932861328	0.8783591985702515	-0.10513459146022797	0.02465670928359032	241
242	1512722585.5858831	-0.309285044670105	0.4462527632713318	0.8017626404762268	26.08080291748047	33.255905151367195	32.941665649414055	1013.42041015625	-21.825136184692386	-19.0753173828125	-9.563054084777832	0.3743953406810761	0.09034229069948196	-0.1418040692806244	242
243	1512722585.6293476	-0.31965216994285583	0.4632482528686523	0.8095608949661255	26.08080291748047	33.181102752685554	32.941665649414055	1013.418212890625	-21.407978057861328	-18.870813369750977	-9.971536636352539	-0.3702493906021118	0.2290087044239044	-0.2563413083553314	243
244	1512722585.67587	-0.35346865653991705	0.4236730635166168	0.8390482664108276	25.791223526000977	33.181102752685554	32.93958282470703	1013.41845703125	-21.336328506469727	-18.782930374145508	-10.124870300292967	-0.3311540186405182	0.08179017156362534	-0.1870080977678299	244
245	1512722585.7186973	-0.3675382733345032	0.3658884167671204	0.8483087420463562	25.451919555664066	33.125	32.93541717529297	1013.409423828125	-21.095592498779297	-19.00505256652832	-10.070566177368164	0.3950151205062866	-0.1758120357990265	-0.004804853349924088	245
246	1512722585.7764196	-0.3431015610694885	0.3833694756031037	0.8176029324531555	25.451919555664066	33.125	32.9375	1013.39794921875	-21.24803924560547	-19.55254554748535	-10.186007499694824	0.6509676575660706	-0.29370903968811035	0.07094243168830873	246
247	1512722585.8193846	-0.3198989927768707	0.4600919187068939	0.8132163882255554	26.60146141052246	33.19980239868164	32.93958282470703	1013.397705078125	-21.205547332763672	-19.18346405029297	-10.721781730651855	0.026815861463546756	-0.12270723283290864	-0.06208126246929169	247
248	1512722585.8627465	-0.31965216994285583	0.4503802359104157	0.8336869478225708	26.60146141052246	33.19980239868164	32.94374847412109	1013.399169921875	-21.13270378112793	-18.792234420776367	-11.036616325378418	-0.4035838842391968	0.08188513666391373	-0.18585972487926486	248
249	1512722585.9050565	-0.33075976371765137	0.39550909399986267	0.8366112709045409	27.28592300415039	33.162403106689446	32.9375	1013.397216796875	-20.7336540222168	-19.590778350830078	-10.05718994140625	-0.12869450449943542	0.14663684368133545	-0.15623275935649872	249
250	1512722585.9486082	-0.33717748522758484	0.3656456172466278	0.8258886337280273	27.28592300415039	33.162403106689446	32.941665649414055	1013.394775390625	-20.92207145690918	-20.295743942260746	-9.779590606689453	0.4727023243904114	0.0782199427485466	-0.060326918959617615	250
251	1512722585.9950964	-0.3423610329627991	0.4108050465583801	0.818821370601654	27.36782455444336	33.162403106689446	32.93958282470703	1013.40185546875	-20.801076889038086	-20.221689224243164	-10.26796054840088	0.5909047126770021	-0.026238013058900837	-0.03131081908941269	251
252	1512722586.038521	-0.3477914333343506	0.4588779807090759	0.827594518661499	27.36782455444336	33.162403106689446	32.941665649414055	1013.3974609375	-20.960124969482425	-19.619020462036133	-10.742284774780273	0.09058482199907304	-0.07324432581663133	-0.07282648980617523	252
253	1512722586.0880735	-0.3458167314529419	0.4435820281505585	0.8268634080886841	26.902740478515625	33.255905151367195	32.945831298828125	1013.39599609375	-21.003854751586914	-19.754199981689453	-11.266350746154785	-0.2916966676712036	-0.1230855956673622	-0.09699661284685136	253
254	1512722586.1314404	-0.3347091376781464	0.3874969482421875	0.8161407113075256	24.79085922241211	33.181102752685554	32.952083587646484	1013.393798828125	-20.8144588470459	-19.928821563720703	-11.465095520019533	-0.02771385759115219	-0.14929437637329102	-0.054402772337198264	254
255	1512722586.1748893	-0.3268103897571564	0.37875643372535706	0.824670135974884	24.79085922241211	33.181102752685554	32.941665649414055	1013.388427734375	-20.81622695922852	-19.87523078918457	-11.133001327514648	0.4087493717670441	-0.10592295229434967	-0.017750857397913933	255
256	1512722586.2172725	-0.3245888948440552	0.4125045835971832	0.837342381477356	27.010967254638672	33.218505859375	32.93541717529297	1013.38623046875	-20.948217391967773	-19.862945556640625	-10.697381973266602	0.5037388801574707	0.02083158493041992	-0.06845267117023468	256
257	1512722586.26475	-0.3265635669231415	0.44018295407295227	0.8273507952690125	27.010967254638672	33.218505859375	32.950000762939446	1013.38818359375	-20.935047149658203	-20.0349235534668	-11.008152961730957	0.13752520084381106	0.1680501103401184	-0.14969775080680847	257
258	1512722586.3070226	-0.3347091376781464	0.4273149371147156	0.8117542266845703	25.931625366210934	33.349411010742195	32.941665649414055	1013.3857421875	-20.98757743835449	-19.95763397216797	-10.998682022094727	-0.10193398594856262	0.14178290963172913	-0.1686345785856247	258
259	1512722586.3504136	-0.3490256071090698	0.4008505344390869	0.8168718218803406	25.931625366210934	33.349411010742195	32.941665649414055	1013.38134765625	-21.392837524414066	-19.98454093933105	-10.683876037597656	-0.004600785672664642	-0.012360692024230957	-0.08149391412734985	259
260	1512722586.3927402	-0.3569243550300598	0.3984226286411285	0.8380734324455261	26.7681884765625	33.218505859375	32.941665649414055	1013.38037109375	-21.584861755371094	-20.22701644897461	-10.409767150878906	0.2648988962173462	-0.17564153671264648	0.003541171550750733	260
261	1512722586.436114	-0.3463104367256165	0.41226181387901306	0.8351490497589111	26.7681884765625	33.218505859375	32.93958282470703	1013.37939453125	-21.534324645996094	-20.36292839050293	-10.442983627319336	0.37882527709007263	-0.22787050902843475	0.016674773767590526	261
262	1512722586.4808161	-0.32335469126701355	0.4210023283958435	0.8156533241271973	25.680072784423828	33.29330825805664	32.94374847412109	1013.38671875	-21.42198944091797	-20.417430877685547	-10.568033218383787	0.2450457811355591	-0.13349184393882751	-0.039524827152490616	262
263	1512722586.524628	-0.2527596950531006	0.4234302341938019	0.8117542266845703	25.680072784423828	33.29330825805664	32.941665649414055	1013.388671875	-21.43216323852539	-20.549654006958008	-10.69482135772705	-0.0047174543142318726	0.045027419924736016	-0.11874016374349596	263
264	1512722586.567349	-0.3245888948440552	0.4146897196769713	0.8293004035949707	26.72138786315918	33.218505859375	32.94791793823242	1013.3955078125	-21.415809631347656	-20.425472259521484	-10.65867805480957	-0.00929894298315048	0.1421549916267395	-0.15264318883419034	264
265	1512722586.611447	-0.341620534658432	0.4059491753578186	0.840266764163971	26.72138786315918	33.218505859375	32.94374847412109	1013.395751953125	-21.56507110595703	-20.14076042175293	-10.265311241149902	0.1831236183643341	0.12810510396957395	-0.11568583548069	265
266	1512722586.6538134	-0.3477914333343506	0.4023073017597199	0.8263760209083557	27.742229461669922	33.181102752685554	32.94791793823242	1013.3984375	-21.57215881347656	-20.35027503967285	-10.306509017944336	0.371270090341568	0.03006122261285782	-0.022223450243473053	266
267	1512722586.705313	-0.3169369697570801	0.3406379818916321	0.8283255696296692	27.133819580078125	33.29330825805664	32.952083587646484	1013.39453125	-21.42239570617676	-20.30233764648437	-10.213068962097168	0.9683908224105836	0.016011320054531097	0.3171121776103973	267
268	1512722586.7538798	-0.3206394910812378	0.5334152579307556	0.8648801445960999	27.133819580078125	33.29330825805664	32.94791793823242	1013.397216796875	-21.25141906738281	-19.8924503326416	-10.709371566772461	-0.19866716861724854	0.17086565494537356	0.05413470417261124	268
269	1512722586.7962606	-0.35618385672569275	0.4982104003429413	0.851476788520813	27.35612297058105	33.181102752685554	32.950000762939446	1013.400634765625	-21.149112701416016	-19.690969467163086	-11.741677284240724	-1.1674994230270386	0.1720874011516571	-0.0026757624000310893	269
270	1512722586.845364	-0.33865851163864136	0.3634604811668396	0.778611421585083	27.35612297058105	33.181102752685554	32.945831298828125	1013.405517578125	-21.37110710144043	-19.739673614501953	-11.160226821899414	-0.5529689788818359	-0.06431745737791061	0.14606992900371552	270
271	1512722586.8960276	-0.3342154622077942	0.2925650477409363	0.8212583661079407	24.87568473815918	33.181102752685554	32.950000762939446	1013.40966796875	-21.49733161926269	-20.125362396240234	-10.415943145751953	1.0578826665878296	-0.2448281347751617	0.4090474247932434	271
272	1512722586.9465954	-0.3379180133342743	0.4355698823928833	0.935552179813385	24.87568473815918	33.181102752685554	32.952083587646484	1013.416015625	-20.87494659423828	-20.18248176574707	-10.171984672546387	0.9305171966552734	-0.020335163921117786	0.2367834150791168	272
273	1512722586.9888785	-0.3129876255989075	0.5271027088165283	0.8266196846961975	26.44351005554199	33.19980239868164	32.945831298828125	1013.422607421875	-20.33745574951172	-19.594284057617188	-10.49363899230957	-0.4277416467666626	0.32144394516944885	-0.05246128141880035	273
274	1512722587.032274	-0.30188000202178955	0.4321708083152771	0.7591156959533691	26.44351005554199	33.14369964599609	32.94791793823242	1013.426513671875	-20.206987380981445	-19.298540115356445	-10.850786209106444	-1.0511295795440674	0.4579723179340362	-0.0805610865354538	274
275	1512722587.0823145	-0.3403863608837128	0.33796727657318115	0.8205273151397705	26.08957862854004	33.14369964599609	32.94374847412109	1013.429443359375	-20.433088302612305	-19.63898468017578	-10.681171417236328	-0.012964136898517609	0.20935016870498654	0.1830272674560547	275
276	1512722587.125168	-0.39320918917655945	0.35884743928909296	0.8950985074043274	25.530895233154297	33.14369964599609	32.950000762939446	1013.42431640625	-20.97696304321289	-20.205171585083008	-10.809815406799316	1.0881204605102541	-0.200234979391098	0.40446591377258295	276
277	1512722587.1732855	-0.36013320088386536	0.4547505080699921	0.8288130164146423	25.530895233154297	33.14369964599609	32.95416641235352	1013.424560546875	-20.69986724853516	-20.351945877075195	-10.851909637451172	0.59698486328125	-0.20451104640960693	0.35681843757629395	277
278	1512722587.2157333	-0.30212682485580444	0.4761162400245666	0.7566787004470825	27.01974296569824	33.14369964599609	32.956249237060554	1013.4287109375	-20.072879791259766	-19.535160064697266	-11.2371826171875	-0.5554124712944031	-0.03560679405927658	0.070933498442173	278
279	1512722587.2592454	-0.30582934617996216	0.4248870015144348	0.7890903949737549	27.01974296569824	33.14369964599609	32.94791793823242	1013.41845703125	-19.622852325439453	-19.5068416595459	-11.344557762145994	-0.9112415313720704	0.15376144647598267	0.03428158164024353	279
280	1512722587.302012	-0.3438420593738556	0.3668595850467682	0.8943674564361572	26.440584182739254	33.255905151367195	32.95416641235352	1013.421142578125	-19.412315368652344	-20.07961654663086	-11.144037246704102	-0.03220639005303383	0.223094642162323	0.14454275369644165	280
281	1512722587.3501835	-0.3510002791881561	0.3622465431690216	0.8646364212036133	26.440584182739254	33.255905151367195	32.950000762939446	1013.42138671875	-19.51749992370605	-20.48923683166504	-11.047547340393066	0.9790810346603394	0.18888616561889648	0.2471681237220764	281
282	1512722587.393059	-0.3226141929626465	0.4236730635166168	0.7725190520286559	26.70676422119141	33.14369964599609	32.950000762939446	1013.4287109375	-19.866207122802734	-20.40530204772949	-11.340017318725586	0.5841566324234009	0.17056024074554446	0.17997294664382935	282
283	1512722587.4403615	-0.3319939374923706	0.469560831785202	0.7878718972206116	26.70676422119141	33.14369964599609	32.956249237060554	1013.4345703125	-20.04604721069336	-20.110401153564453	-11.598531723022461	-0.5208985805511475	0.117109514772892	0.08284536749124527	283
284	1512722587.4859107	-0.3655636012554169	0.446495532989502	0.8619557619094849	25.92870140075684	33.19980239868164	32.950000762939446	1013.436767578125	-19.92515182495117	-19.5096435546875	-11.43991756439209	-0.6839996576309204	-0.009950451552867891	0.12835483253002167	284
285	1512722587.5330715	-0.3606268763542175	0.3707442581653595	0.8590313792228699	26.7681884765625	33.218505859375	32.95416641235352	1013.430908203125	-19.32491874694824	-19.636085510253906	-11.376503944396973	0.24390470981597898	-0.15777984261512756	0.2679375410079956	285
286	1512722587.5911398	-0.3112597763538361	0.3605469763278961	0.7900651693344116	26.7681884765625	33.218505859375	32.952083587646484	1013.436279296875	-19.50596809387207	-20.67156791687012	-10.848669052124023	0.6849493980407715	-0.0447697713971138	0.2844308912754059	286
287	1512722587.6370199	-0.30360785126686096	0.4540221095085144	0.8115105032920837	27.484825134277344	33.19980239868164	32.952083587646484	1013.439208984375	-18.79825210571289	-20.305416107177734	-10.708346366882324	0.12692400813102722	0.19896546006202695	0.09261921048164368	287
288	1512722587.6839983	-0.33915215730667114	0.4770874083042145	0.8663422465324402	27.484825134277344	33.19980239868164	32.95416641235352	1013.441650390625	-18.421689987182614	-20.04912567138672	-10.724581718444824	-0.4668370187282562	0.384363055229187	-0.008478982374072075	288
289	1512722587.7264163	-0.35001295804977417	0.3952663242816925	0.8300314545631409	27.557950973510746	33.23720550537109	32.94791793823242	1013.4375	-18.62298011779785	-20.1595401763916	-10.781803131103516	-0.21668769419193268	0.27501818537712097	0.061465084552764886	289
290	1512722587.769972	-0.3435952365398407	0.3539915680885315	0.7878718972206116	27.557950973510746	33.23720550537109	32.95416641235352	1013.43798828125	-19.022014617919922	-20.43705940246582	-10.131105422973633	0.3162922263145447	0.02945035696029663	0.2929830253124237	290
291	1512722587.812958	-0.3527281582355499	0.3947807252407074	0.8137037754058838	25.624496459960934	33.27460479736328	32.945831298828125	1013.443603515625	-19.337717056274414	-20.39142227172852	-10.34805393218994	0.5160452127456665	-0.1666373908519745	0.3149741590023041	291
292	1512722587.8568525	-0.3574180006980896	0.4571784436702728	0.8656112551689148	25.624496459960934	33.14369964599609	32.960418701171875	1013.4296875	-19.337289810180664	-20.07876205444336	-10.661206245422363	0.20511475205421448	-0.1831307411193848	0.26030170917510986	292
293	1512722587.9036427	-0.33075976371765137	0.4600919187068939	0.8314936757087708	26.5341854095459	33.14369964599609	32.960418701171875	1013.423828125	-18.960193634033203	-19.753612518310547	-10.572272300720217	-0.31656414270401	0.008070074021816255	0.14454275369644165	293
294	1512722587.9469638	-0.3001521527767181	0.3879825174808502	0.7820231914520264	26.45813369750977	33.23720550537109	32.95833206176758	1013.425537109375	-18.56502342224121	-19.752979278564453	-10.332608222961426	-0.2716655731201172	0.17636343836784366	0.08681599795818329	294
295	1512722587.9908051	-0.3166901469230652	0.3714726269245148	0.8729221224784851	26.45813369750977	33.23720550537109	32.95416641235352	1013.42578125	-18.404827117919922	-19.984716415405273	-10.558433532714844	0.1538020819425583	0.2591356933116913	0.12132987380027772	295
296	1512722588.0371966	-0.3532218039035797	0.407163143157959	0.8704851269721985	26.680438995361328	33.29330825805664	32.956249237060554	1013.42529296875	-18.569908142089844	-20.63639068603516	-10.564777374267578	0.5282624959945679	0.21606966853141785	0.17142082750797272	296
297	1512722588.0814755	-0.3566775023937225	0.44261085987091053	0.8412414789199829	26.680438995361328	33.29330825805664	32.960418701171875	1013.423095703125	-18.534090042114254	-20.07855987548828	-10.391106605529783	0.29674455523490906	0.11283346265554428	0.17478059232234955	297
298	1512722588.1238098	-0.33495599031448364	0.4358126819133759	0.7800736427307129	25.88190078735352	33.19980239868164	32.962501525878906	1013.423583984375	-18.568078994750977	-19.608259201049805	-10.732189178466797	-0.20447039604187006	0.013262428343296051	0.14484819769859314	298
299	1512722588.1671724	-0.3359433114528656	0.4146897196769713	0.8024937510490417	25.88190078735352	33.19980239868164	32.962501525878906	1013.421142578125	-18.633684158325195	-19.515804290771484	-10.606282234191896	-0.3929223120212555	-0.0753130316734314	0.1622578501701355	299
300	1512722588.2140653	-0.3517408072948456	0.4023073017597199	0.8678044676780701	27.10164451599121	33.218505859375	32.95833206176758	1013.4189453125	-18.58692169189453	-19.517927169799805	-10.307934761047363	0.056674495339393616	-0.11165951192378998	0.22090092301368716	300
301	1512722588.257589	-0.333721786737442	0.3908960521221161	0.8592751026153564	27.10164451599121	33.218505859375	32.956249237060554	1013.42431640625	-18.508195877075195	-19.552892684936523	-10.027709007263184	0.5276515483856201	-0.024305786937475204	0.24533551931381226	301
302	1512722588.2998512	-0.3053357005119324	0.4091054797172545	0.7942080497741699	26.510786056518555	33.31200790405273	32.960418701171875	1013.42578125	-18.576889038085934	-19.6748104095459	-9.851360321044922	0.4286914169788361	0.14673647284507751	0.16989366710186005	302
303	1512722588.3432775	-0.309285044670105	0.4392117857933045	0.7847038507461548	26.510786056518555	33.31200790405273	32.95833206176758	1013.425048828125	-18.8187255859375	-19.14275932312012	-9.824055671691896	-0.11345146596431732	0.30220168828964233	0.02970009483397007	303
304	1512722588.3863206	-0.3480382859706879	0.4440675973892212	0.8397793769836426	26.82961463928223	33.125	32.956249237060554	1013.435546875	-18.864389419555664	-18.85793113708496	-9.746176719665527	-0.4133863151073456	0.2887626588344574	0.02664577029645443	304
305	1512722588.4332542	-0.3732154965400696	0.4081343114376068	0.8614683747291565	26.82961463928223	33.125	32.95833206176758	1013.43310546875	-18.926204681396484	-19.34166145324707	-9.321330070495604	0.02093888819217682	0.048387177288532264	0.15584376454353333	305
306	1512722588.4826546	-0.35001295804977417	0.36880192160606384	0.8007878661155701	26.762338638305664	33.19980239868164	32.956249237060554	1013.4326171875	-19.08068084716797	-19.710124969482425	-8.97561264038086	0.566441535949707	-0.17396777868270874	0.3021459877490997	306
307	1512722588.526007	-0.32360154390335083	0.4180887937545776	0.7900651693344116	27.06069374084473	33.27460479736328	32.95416641235352	1013.4267578125	-19.075151443481445	-19.63071060180664	-8.772854804992676	0.3272877931594849	-0.1562526822090149	0.267326682806015	307
308	1512722588.569691	-0.3277977705001831	0.4676184952259064	0.8375861048698425	27.06069374084473	33.27460479736328	32.95833206176758	1013.428466796875	-18.903806686401367	-19.3394775390625	-8.99038028717041	-0.2604135870933533	0.01763128489255905	0.1033671572804451	308
309	1512722588.6272929	-0.3302660882472992	0.4110478162765503	0.8478213548660278	24.53345489501953	33.125	32.97083282470703	1013.4326171875	-18.78817749023437	-19.07124900817871	-8.396011352539062	-0.2842373549938202	0.2311286926269531	0.036782845854759216	309
310	1512722588.6708086	-0.32310786843299866	0.3537487983703613	0.804686963558197	24.53345489501953	33.125	32.960418701171875	1013.431640625	-18.807836532592773	-19.129514694213867	-7.672759056091309	0.3351799845695496	0.23021239042282104	0.09664764255285263	310
311	1512722588.7185078	-0.33717748522758484	0.38264107704162603	0.8680481910705566	26.268007278442386	33.27460479736328	32.960418701171875	1013.4326171875	-18.93843078613281	-19.099609375	-7.608799457550049	0.6042661070823669	0.09979265928268433	0.1534581035375595	311
312	1512722588.7620418	-0.36235472559928894	0.4659189581871033	0.8456280827522278	26.268007278442386	33.27460479736328	32.95833206176758	1013.4345703125	-19.130266189575195	-18.683935165405273	-7.867351055145264	0.11587938666343688	-0.004359863698482513	0.1287180632352829	312
313	1512722588.8044643	-0.3566775023937225	0.4617914855480194	0.8395356535911559	26.67458724975586	33.19980239868164	32.956249237060554	1013.43603515625	-19.23806953430176	-18.27942657470703	-7.690114021301269	-0.3946186304092407	-0.07649189233779907	0.08718216419219971	313
314	1512722588.8479822	-0.3315002918243408	0.3933239877223969	0.7966449856758118	26.67458724975586	33.23720550537109	32.964584350585945	1013.44091796875	-18.885061264038086	-18.571060180664066	-8.307188987731934	-0.2797759473323822	-0.1103949099779129	0.1232232078909874	314
315	1512722588.8947227	-0.3194053173065185	0.3595758080482483	0.8141911625862122	26.45228385925293	33.23720550537109	32.962501525878906	1013.441162109375	-18.58884620666504	-18.947399139404297	-7.924564838409424	0.3878895044326782	-0.07068128883838654	0.17388172447681427	315
316	1512722588.938278	-0.32903191447258	0.4137185513973236	0.8531826734542847	26.104204177856445	33.27460479736328	32.964584350585945	1013.44189453125	-18.66189765930176	-18.96156120300293	-8.052579879760742	0.5711490511894226	0.07623180747032167	0.06484226137399672	316
317	1512722588.9964738	-0.3302660882472992	0.4576640129089356	0.8434348106384277	26.104204177856445	33.27460479736328	32.95833206176758	1013.4462890625	-18.46529769897461	-18.31566429138184	-7.5800819396972665	-0.05651497840881348	0.2765955924987793	-0.007545265369117259	317
318	1512722589.0460405	-0.3302660882472992	0.4188171923160553	0.789821445941925	26.60146141052246	33.31200790405273	32.962501525878906	1013.444091796875	-19.07870864868164	-17.62935447692871	-7.73939847946167	-0.3029991090297699	0.2155090719461441	-0.014264782890677454	318
319	1512722589.0894227	-0.35643067955970764	0.3848262429237366	0.8236953020095825	26.60146141052246	33.31200790405273	32.964584350585945	1013.4453125	-19.377634048461914	-17.968061447143555	-7.862294673919678	0.05937647819519042	0.0024417564272880554	0.10094772279262544	319
320	1512722589.1317673	-0.3702534735202789	0.4008505344390869	0.8592751026153564	26.4610595703125	33.23720550537109	32.962501525878906	1013.448486328125	-19.406673431396484	-18.56904411315918	-7.8703861236572275	0.4417780935764313	-0.18875905871391296	0.2182338386774063	320
321	1512722589.1819372	-0.3423610329627991	0.4295000731945038	0.8356364965438843	26.90859222412109	33.181102752685554	32.964584350585945	1013.4541015625	-19.38093376159668	-18.620027542114254	-7.691689491271973	0.27073585987091064	-0.17990151047706604	0.19379922747612	321
322	1512722589.2257614	-0.3050888776779175	0.43071404099464417	0.7912836670875549	26.90859222412109	33.181102752685554	32.96875	1013.45263671875	-19.3102970123291	-18.11569023132324	-6.937192916870117	-0.12860143184661865	-0.008478160947561264	0.056045837700366974	322
323	1512722589.2681413	-0.3102724254131317	0.4132329821586609	0.8202835917472839	26.43180847167969	33.162403106689446	32.96875	1013.452392578125	-19.227771759033203	-17.925107955932614	-6.4737181663513175	-0.2257290184497833	0.1760031431913376	-0.005956985056400299	323
324	1512722589.315241	-0.33717748522758484	0.4006077349185944	0.8595187664031982	26.43180847167969	33.162403106689446	32.96875	1013.4482421875	-19.073200225830078	-18.08663558959961	-6.944212913513184	0.17713662981987	0.2483906596899033	0.02305911295115948	324
325	1512722589.3581095	-0.3490256071090698	0.40279290080070496	0.840266764163971	26.75941467285156	33.23720550537109	32.96875	1013.447021484375	-19.407304763793945	-18.24807548522949	-6.468050479888916	0.4300348162651062	0.170199915766716	0.08109130710363388	325
326	1512722589.401495	-0.3421142101287842	0.4154180884361267	0.7978634834289551	26.75941467285156	33.23720550537109	32.964584350585945	1013.443359375	-19.171464920043945	-18.210538864135746	-6.977781772613525	0.28128913044929504	0.04802687093615532	0.10613679140806198	326
327	1512722589.443835	-0.345569908618927	0.4345986843109131	0.8020063042640686	27.031442642211914	33.29330825805664	32.960418701171875	1013.4462890625	-19.14130973815918	-18.10932922363281	-7.086325168609619	-0.0609695315361023	-0.0666782334446907	0.10111278295516968	327
328	1512722589.4943404	-0.35248130559921265	0.43168520927429205	0.8500145673751831	27.031442642211914	33.29330825805664	32.962501525878906	1013.44189453125	-19.21439552307129	-18.01911163330078	-6.5375075340271	-0.16255566477775574	-0.12940511107444766	0.10779118537902832	328
329	1512722589.5367	-0.33693066239356995	0.4030356705188751	0.8456280827522278	26.308956146240234	33.181102752685554	32.96875	1013.440185546875	-19.29621124267578	-17.93001365661621	-5.640670776367188	0.09140799939632416	-0.08766879141330719	0.11591075360774995	329
330	1512722589.5790362	-0.3132344484329224	0.3887109160423279	0.8032248616218567	26.308956146240234	33.181102752685554	32.96875	1013.437255859375	-19.48894500732422	-17.7578125	-6.108119010925293	0.31864988803863525	0.03206079825758934	0.08903267979621887	330
331	1512722589.625772	-0.312247097492218	0.40667757391929626	0.8107793927192688	26.27678108215332	33.31200790405273	32.96875	1013.43017578125	-19.75275039672852	-17.62009048461914	-6.361429691314697	0.2618394196033478	0.2049356549978256	0.02855702117085457	331
332	1512722589.6690507	-0.3406331837177277	0.4404257237911224	0.842460036277771	26.27678108215332	33.31200790405273	32.964584350585945	1013.434326171875	-19.168739318847656	-17.71434783935547	-6.446183681488037	0.04467680677771568	0.2635787129402161	-0.018785031512379646	332
333	1512722589.7113051	-0.3559370040893555	0.4295000731945038	0.8434348106384277	29.90091323852539	33.33071136474609	32.962501525878906	1013.44091796875	-19.00601577758789	-17.94023895263672	-6.216064929962157	-0.05458879470825195	0.17683586478233335	-0.001680806279182434	333
334	1512722589.7548802	-0.3487787544727325	0.4001221656799317	0.8093172907829285	29.90091323852539	33.181102752685554	32.96875	1013.4365234375	-19.386383056640625	-17.77677345275879	-5.257180690765381	0.03712113574147224	0.003813836723566055	0.08662031590938568	334
335	1512722589.7978508	-0.342607855796814	0.39405232667922974	0.8095608949661255	26.42303466796875	33.181102752685554	32.96875	1013.442138671875	-19.66395568847656	-17.882837295532227	-5.334311485290527	0.19808411598205566	-0.13851776719093326	0.15015029907226562	335
336	1512722589.844344	-0.3433483839035034	0.41614645719528204	0.8422163128852844	27.00804328918457	33.27460479736328	32.97083282470703	1013.43798828125	-19.54392433166504	-17.917919158935547	-5.458702564239502	0.2347360551357269	-0.1556219905614853	0.15045572817325592	336
337	1512722589.887808	-0.328044593334198	0.4336275160312653	0.8448969721794128	27.00804328918457	33.27460479736328	32.97499847412109	1013.43701171875	-19.069110870361328	-17.943614959716797	-5.400757789611816	0.09820766746997832	-0.010236065834760666	0.08142796158790587	337
338	1512722589.930876	-0.31175342202186584	0.4193027913570404	0.8127289414405823	26.899816513061523	33.255905151367195	32.981250762939446	1013.438720703125	-18.721834182739254	-17.9107608795166	-5.502824306488037	-0.018241923302412037	0.1634422242641449	-0.010705403983592987	338
339	1512722589.9742455	-0.3166901469230652	0.3993937969207764	0.8041995763778687	26.899816513061523	33.255905151367195	32.981250762939446	1013.441162109375	-18.80091857910156	-17.752582550048828	-5.449397087097168	0.010163310915231705	0.25476658344268804	-0.024449869990348816	339
340	1512722590.0202534	-0.3443357050418854	0.4047352373600006	0.8419725894927979	26.74771499633789	33.255905151367195	32.96875	1013.44091796875	-19.158971786499023	-17.8753604888916	-4.742702007293701	0.1573818325996399	0.17779755592346191	-0.06659957021474837	340
341	1512722590.0645852	-0.3702534735202789	0.4001221656799317	0.8500145673751831	26.74771499633789	33.255905151367195	32.972915649414055	1013.440185546875	-19.38104248046875	-17.84104347229004	-4.49705982208252	0.07186070084571837	0.08464060723781586	-0.3534007966518402	341
342	1512722590.1070814	-0.370006650686264	0.3862829804420471	0.837342381477356	27.5345516204834	33.255905151367195	32.977081298828125	1013.437255859375	-19.587060928344727	-17.78065299987793	-4.661221504211426	0.4328820705413817	-0.18169663846492767	-0.14387401938438416	342
343	1512722590.150582	-0.34680408239364624	0.39672309160232544	0.7966449856758118	27.5345516204834	33.255905151367195	32.972915649414055	1013.433349609375	-19.76030731201172	-17.845205307006836	-4.969525337219238	0.5581094622612	-0.3753409087657929	-0.08370380103588104	343
344	1512722590.1987257	-0.33125343918800354	0.4365410506725311	0.8127289414405823	26.411333084106445	33.23720550537109	32.977081298828125	1013.43017578125	-19.61860466003418	-17.869869232177734	-5.347412109375	0.10606914758682252	-0.3197521865367889	-0.15975652635097504	344
345	1512722590.2474089	-0.3248357176780701	0.4460099637508392	0.8492835164070129	26.411333084106445	33.23720550537109	32.977081298828125	1013.429443359375	-19.249113082885746	-17.825578689575195	-5.369410991668701	-0.16454415023326874	-0.06868655979633331	-0.2831512987613678	345
346	1512722590.2903988	-0.3194053173065185	0.3906532526016235	0.8344180583953857	25.788299560546875	33.27460479736328	32.981250762939446	1013.421875	-19.12809944152832	-17.936763763427734	-5.292394161224365	0.15432751178741455	0.09594161808490753	-0.20954205095767972	346
347	1512722590.3343885	-0.3068167269229889	0.4906837940216065	0.7839727401733398	25.788299560546875	33.19980239868164	32.97916793823242	1013.42578125	-19.08333396911621	-18.16554832458496	-4.711193084716797	-0.014271300286054613	0.30821728706359863	0.13834571838378906	347
348	1512722590.385184	-0.3413737118244171	0.3848262429237366	0.8117542266845703	26.20950508117676	33.19980239868164	32.97916793823242	1013.42529296875	-19.329856872558594	-18.28118133544922	-3.641263723373413	0.406920313835144	0.22239071130752566	0.2837316691875458	348
349	1512722590.4276896	-0.359145849943161	0.4248870015144348	0.8429474234580994	27.455575942993164	33.255905151367195	32.97499847412109	1013.42138671875	-19.2485294342041	-18.06475067138672	-4.2589402198791495	0.4136398136615753	0.0968579202890396	0.31030428409576416	349
350	1512722590.4750633	-0.3556901514530182	0.4603347182273865	0.8339306116104126	27.455575942993164	33.255905151367195	32.97916793823242	1013.427490234375	-19.690156936645508	-17.739009857177734	-5.105099678039551	-0.14316385984420776	0.01866716518998146	0.27059805393218994	350
351	1512722590.5195794	-0.3300192654132843	0.4210023283958435	0.8024937510490417	26.121753692626953	33.218505859375	32.977081298828125	1013.421875	-19.716045379638672	-17.344505310058597	-4.536652088165283	-0.36674052476882935	0.011947650462388992	0.2424982339143753	351
352	1512722590.5668972	-0.32286104559898376	0.381427139043808	0.8119979500770569	26.121753692626953	33.218505859375	32.983333587646484	1013.423583984375	-19.64468765258789	-16.97767448425293	-5.4537129402160645	0.00985788181424141	0.05134845897555351	0.27029260993003845	352
353	1512722590.6093812	-0.33125343918800354	0.39720866084098816	0.8512331247329712	26.49616050720215	33.255905151367195	32.983333587646484	1013.427490234375	-19.692554473876953	-17.05873680114746	-4.89398193359375	0.3852345943450928	0.1426728069782257	0.2834262251853943	353
354	1512722590.6529913	-0.3317471146583557	0.4321708083152771	0.8444095849990845	26.49616050720215	33.255905151367195	32.97916793823242	1013.4306640625	-19.47971534729004	-17.321456909179688	-4.314481735229491	0.2945210933685303	0.2578209042549133	0.2278374582529068	354
355	1512722590.6959105	-0.3265635669231415	0.4321708083152771	0.8044432997703552	26.607311248779297	33.27460479736328	32.97916793823242	1013.434814453125	-19.108009338378906	-17.38290023803711	-4.095805644989014	-0.027404900640249245	0.3002760410308838	0.1319316327571869	355
356	1512722590.7641294	-0.3403863608837128	0.40667757391929626	0.8083424568176271	27.11919403076172	33.29330825805664	32.97916793823242	1013.4443359375	-19.075342178344727	-17.191944122314453	-4.454817771911621	-0.1312519907951355	0.07517220079898834	0.13345879316329956	356
357	1512722590.811285	-0.3586522042751312	0.4093482792377472	0.851476788520813	27.11919403076172	33.29330825805664	32.98541641235352	1013.443603515625	-19.106685638427734	-17.458782196044922	-4.597666263580322	0.13539068400859833	-0.0796821340918541	0.20065397024154666	357
358	1512722590.854102	-0.3411268889904022	0.4100766479969025	0.8339306116104126	26.50493621826172	33.29330825805664	32.983333587646484	1013.437744140625	-19.20247459411621	-17.826745986938477	-4.496204853057861	0.2193846553564072	-0.08365276455879211	0.20462459325790405	358
359	1512722590.9047155	-0.3164433240890503	0.4052208065986633	0.8020063042640686	26.50493621826172	33.29330825805664	32.991668701171875	1013.438720703125	-19.154848098754886	-18.003652572631836	-4.458982944488525	0.12744943797588348	0.025997553020715717	0.08917106688022614	359
360	1512722590.9473314	-0.3208863437175751	0.4146897196769713	0.8205273151397705	27.745155334472656	33.19980239868164	32.98958206176758	1013.4375	-18.154441833496094	-17.993515014648438	-4.705284118652344	0.07674762606620789	0.1325935274362564	0.024419348686933517	360
361	1512722590.9907901	-0.33322814106941223	0.4639765918254852	0.842460036277771	27.745155334472656	33.19980239868164	32.987499237060554	1013.434326171875	-17.886003494262695	-18.06587791442871	-4.850286960601807	-0.18012121319770813	0.2443818747997284	0.09680688381195067	361
362	1512722591.0330708	-0.3359433114528656	0.3921099901199341	0.8202835917472839	25.361242294311523	33.19980239868164	32.987499237060554	1013.427734375	-18.412097930908203	-17.97101593017578	-4.449599742889403	0.1775403916835785	0.11640560626983645	0.1264338344335556	362
363	1512722591.080702	-0.33865851163864136	0.3828839063644409	0.8224768638610841	26.680438995361328	33.33071136474609	32.98958206176758	1013.43212890625	-18.6251163482666	-17.743091583251953	-4.698596954345703	0.31498506665229803	-0.008821766823530197	-0.024144437164068226	363
364	1512722591.1247249	-0.3492724299430847	0.4229446649551392	0.8288130164146423	26.680438995361328	33.33071136474609	32.98958206176758	1013.4326171875	-18.66829490661621	-17.464792251586914	-4.908301830291748	0.2422920912504196	-0.100146122276783	-0.027504196390509602	364
365	1512722591.167041	-0.3408800065517425	0.4372694492340088	0.8329558372497559	27.250822067260746	33.255905151367195	32.98958206176758	1013.431640625	-18.851781845092773	-17.231964111328125	-4.969339847564697	0.05537920445203781	-0.094034805893898	-0.034675344824790955	365
366	1512722591.2140038	-0.3297724425792694	0.4166320562362671	0.8205273151397705	27.250822067260746	33.255905151367195	32.995834350585945	1013.430908203125	-19.036117553710934	-17.466596603393555	-4.745354652404785	0.023146092891693115	-0.028354626148939133	-0.05182429403066635	366
367	1512722591.25629	-0.32335469126701355	0.3991509675979614	0.8127289414405823	26.77696418762207	33.218505859375	32.98541641235352	1013.429931640625	-19.118938446044922	-17.59894561767578	-4.45399808883667	0.1356525868177414	0.044945210218429565	-0.06329642981290817	367
368	1512722591.2995381	-0.3319939374923706	0.4059491753578186	0.8302751779556274	26.77696418762207	33.218505859375	32.987499237060554	1013.431396484375	-19.080476760864254	-17.496763229370114	-4.529486656188965	0.27890050411224365	0.0932035595178604	-0.05993667244911194	368
369	1512722591.3419015	-0.3413737118244171	0.4219734966754913	0.8378297090530396	26.487384796142575	33.27460479736328	32.991668701171875	1013.435546875	-18.981081008911133	-17.581510543823242	-5.081840515136719	0.27890050411224365	0.09931221604347228	-0.05077369511127472	369
370	1512722591.3852873	-0.341620534658432	0.42585816979408253	0.8219894766807556	26.487384796142575	33.27460479736328	32.991668701171875	1013.4345703125	-18.821683883666992	-17.584827423095707	-5.491194248199463	0.1509242206811905	0.05899511277675629	-0.05016282945871353	370
371	1512722591.428234	-0.3396458625793457	0.4173604249954224	0.8095608949661255	26.946617126464844	33.218505859375	32.991668701171875	1013.443359375	-18.791879653930664	-18.03343391418457	-5.275070667266847	0.027202002704143524	-0.0028551407158374786	-0.03780663013458252	371
372	1512722591.475167	-0.3406331837177277	0.4125045835971832	0.8234516978263855	26.946617126464844	33.218505859375	32.987499237060554	1013.44580078125	-18.567747116088867	-18.253664016723636	-4.760009765625	0.04443606734275818	-0.07238518446683884	-0.024496322497725487	372
373	1512722591.5175755	-0.3421142101287842	0.3998793661594391	0.8446532487869263	26.899816513061523	33.31200790405273	32.99791717529297	1013.44287109375	-19.12381172180176	-18.17333030700684	-4.5950188636779785	0.20723167061805725	-0.13286083936691284	-0.1631627380847931	373
374	1512722591.5609887	-0.3285382390022278	0.3850690126419067	0.8395356535911559	26.899816513061523	33.31200790405273	32.993751525878906	1013.446533203125	-19.022422790527344	-18.139373779296875	-4.5869712829589835	0.2579334676265717	-0.19242021441459656	-0.4414118528366089	374
375	1512722591.6105034	-0.31718379259109497	0.4125045835971832	0.8244264125823975	26.6950626373291	33.23720550537109	32.98541641235352	1013.441650390625	-18.92991828918457	-18.209714889526367	-4.686567306518555	0.2200598418712616	-0.1047610491514206	-0.3094649314880371	375
376	1512722591.6610587	-0.29027873277664185	0.4702892303466797	0.8205273151397705	26.41718292236328	33.218505859375	32.991668701171875	1013.437255859375	-18.88237190246582	-18.300296783447266	-4.878642559051514	0.1296517848968506	0.10446030646562576	0.2427572160959244	376
377	1512722591.7131293	-0.31743064522743225	0.3925955891609192	0.8397793769836426	26.41718292236328	33.218505859375	32.993751525878906	1013.433837890625	-18.756988525390625	-18.262147903442386	-5.011295795440674	0.09574874490499496	0.09987881034612656	-0.02327459305524826	377
378	1512722591.7769833	-0.3406331837177277	0.4044924378395081	0.8375861048698425	26.78573989868164	33.31200790405273	32.98958206176758	1013.442138671875	-18.65336036682129	-18.46770477294922	-5.2968101501464835	0.300083190202713	0.15027520060539246	-0.050458095967769616	378
379	1512722591.8206193	-0.3408800065517425	0.4132329821586609	0.8210146427154541	26.41718292236328	33.29330825805664	33.00208282470703	1013.441162109375	-18.605138778686523	-18.328533172607425	-5.295950412750244	0.3107733130455017	0.08705063909292221	-0.011362720280885695	379
380	1512722591.8648756	-0.3413737118244171	0.43289914727211	0.8124852776527405	26.41718292236328	33.29330825805664	33.0	1013.435302734375	-18.702295303344727	-18.27532958984375	-5.589261531829834	0.056001514196395874	0.009611885994672777	0.05099020153284073	380
381	1512722591.9112306	-0.3438420593738556	0.4282861053943634	0.8236953020095825	26.34113311767578	33.31200790405273	32.993751525878906	1013.429931640625	-18.761613845825195	-18.333593368530273	-5.961297035217285	-0.07845534384250641	-0.05247770994901657	0.07634443044662476	381
382	1512722591.9548054	-0.3413737118244171	0.4069203436374664	0.8366112709045409	26.34113311767578	33.31200790405273	33.00624847412109	1013.42578125	-18.976961135864254	-18.1591739654541	-5.730691432952881	0.07791677862405777	-0.06366337835788727	0.09739282727241516	382
383	1512722592.004628	-0.3285382390022278	0.3989081978797913	0.8224768638610841	26.13637924194336	33.29330825805664	32.99791717529297	1013.418701171875	-18.819305419921875	-18.58140563964844	-5.974405765533447	0.2889707088470459	0.018192563205957413	0.09189504384994507	383
384	1512722592.0545845	-0.320145845413208	0.414932519197464	0.8137037754058838	26.13637924194336	33.29330825805664	32.993751525878906	1013.418701171875	-18.711091995239254	-18.34883117675781	-4.620168685913086	0.17993128299713135	0.16418935358524325	0.025921594351530075	384
385	1512722592.0973132	-0.333721786737442	0.4314424097537993	0.8258886337280273	27.58135223388672	33.31200790405273	32.995834350585945	1013.4228515625	-18.642223358154297	-18.4447021484375	-5.611743450164795	-0.03173353523015976	0.22863563895225525	-0.011952050030231476	385
386	1512722592.1409006	-0.3433483839035034	0.42075952887535095	0.8349054455757141	27.58135223388672	33.31200790405273	33.00208282470703	1013.420166015625	-18.526687622070312	-18.427196502685547	-5.800395965576173	-0.03203896805644035	0.19442717730998996	0.10441777110099792	386
387	1512722592.1898437	-0.3490256071090698	0.4032784700393677	0.8261323571205139	25.487018585205078	33.27460479736328	33.004165649414055	1013.417724609375	-18.7329044342041	-18.42491149902344	-5.772704601287843	0.15335863828659058	0.040794577449560165	0.1856628507375717	387
388	1512722592.257141	-0.3421142101287842	0.4054636061191559	0.8239390254020691	26.54003524780273	33.23720550537109	33.0	1013.418212890625	-18.84458541870117	-18.19340705871582	-5.9323062896728525	0.11304152756929398	-0.08260020613670349	0.10961012542247772	388
389	1512722592.3005161	-0.3282914161682129	0.422701895236969	0.8324683904647827	26.54003524780273	33.23720550537109	33.004165649414055	1013.4228515625	-18.562345504760746	-18.4653434753418	-5.702847003936768	0.07028096169233322	0.0007829032838344574	0.10838839411735536	389
390	1512722592.343142	-0.32286104559898376	0.4200311601161957	0.8307625651359558	28.32431411743164	33.31200790405273	33.012500762939446	1013.41796875	-18.208913803100586	-18.37153434753418	-6.327583312988281	0.05226043611764908	0.1305917650461197	0.10227975249290466	390
391	1512722592.3901837	-0.3216268420219421	0.4132329821586609	0.8207710385322571	28.32431411743164	33.31200790405273	33.00208282470703	1013.413330078125	-18.091218948364254	-18.36543273925781	-5.919332027435303	0.040959425270557404	0.21397486329078674	0.1257980614900589	391
392	1512722592.4419339	-0.3305129408836365	0.40837711095809937	0.8224768638610841	26.29140663146973	33.255905151367195	33.00208282470703	1013.406494140625	-18.430368423461914	-18.39054298400879	-5.9274582862854	0.08371999114751816	0.19748151302337646	0.17405641078948975	392
393	1512722592.4854972	-0.3465572595596313	0.4125045835971832	0.8368549942970276	27.69250297546387	33.29330825805664	33.008331298828125	1013.404296875	-18.53742790222168	-18.278125762939453	-6.4394049644470215	0.11915018409490585	0.1095169186592102	0.17833246290683746	393
394	1512722592.529134	-0.3411268889904022	0.4151753187179565	0.8302751779556274	27.69250297546387	33.29330825805664	33.0	1013.403076171875	-18.385805130004886	-18.035608291625977	-6.760721683502197	0.08891234546899797	0.030715297907590863	0.15359242260456085	394
395	1512722592.5750332	-0.32755088806152344	0.4142041504383087	0.8207710385322571	26.621936798095703	33.27460479736328	33.01041793823242	1013.397705078125	-18.307594299316406	-18.06418228149414	-6.740337371826173	0.0715026929974556	0.03835111483931541	0.19268780946731567	395
396	1512722592.6183875	-0.32903191447258	0.4185743927955627	0.8229642510414124	26.621936798095703	33.27460479736328	33.014583587646484	1013.3974609375	-18.553491592407227	-18.58636283874512	-6.585161209106445	0.02721495926380157	0.09699417650699617	0.19818559288978574	396
397	1512722592.6684687	-0.3322407901287079	0.4180887937545776	0.8290566802024841	25.59817123413086	33.349411010742195	33.0	1013.3974609375	-17.753978729248047	-18.537179946899414	-6.4944725036621085	0.006445541977882385	0.15899699926376346	0.17283467948436734	397
398	1512722592.7144046	-0.3334749639034271	0.4098338782787323	0.8249138593673706	25.59817123413086	33.349411010742195	33.01666641235352	1013.398681640625	-17.975452423095703	-18.476144790649414	-6.188814163208008	0.0666157677769661	0.1861805021762848	0.1719183772802353	398
399	1512722592.760188	-0.33717748522758484	0.40400683879852295	0.8285692930221558	26.79743957519531	33.36811065673828	33.008331298828125	1013.3935546875	-18.221466064453125	-18.62205696105957	-5.926690101623535	0.16374334692955014	0.12601026892662048	0.14931637048721313	399
400	1512722592.8033473	-0.34285473823547363	0.4214878976345062	0.8251575231552124	26.79743957519531	33.36811065673828	33.014583587646484	1013.39306640625	-18.251365661621094	-18.585596084594727	-6.612081527709961	0.0965481624007225	0.09088551998138428	0.14840006828308105	400
401	1512722592.8529892	-0.3418673872947693	0.42391583323478704	0.8256449103355408	26.38500785827637	33.349411010742195	33.018749237060554	1013.397216796875	-18.143598556518555	-18.479257583618164	-6.3739585876464835	-0.012796714901924132	0.062174860388040536	0.14442944526672366	401
402	1512722592.8964875	-0.337671160697937	0.4120189845561981	0.8251575231552124	26.677513122558594	33.36811065673828	33.01041793823242	1013.404296875	-17.849720001220703	-18.45623207092285	-6.396542549133301	0.022022604942321774	0.05362274870276451	0.14687290787696838	402
403	1512722592.9486942	-0.3329812884330749	0.4052208065986633	0.8224768638610841	26.677513122558594	33.36811065673828	33.01041793823242	1013.404052734375	-17.388446807861328	-18.614437103271484	-5.822985649108888	0.13533809781074524	0.07378129661083221	0.15298156440258026	403
404	1512722592.990855	-0.3319939374923706	0.412990152835846	0.827594518661499	27.470199584960934	33.349411010742195	33.01666641235352	1013.40380859375	-17.571037292480472	-18.73988342285156	-5.518392086029053	0.16374334692955014	0.10249195992946623	0.10625037550926207	404
405	1512722593.0322115	-0.3347091376781464	0.411776214838028	0.8327121138572693	27.470199584960934	33.349411010742195	33.014583587646484	1013.4052734375	-17.757654190063477	-18.89706420898437	-5.842929363250732	0.18939965963363647	0.07714106142520905	-0.034248631447553635	405
406	1512722593.0798204	-0.3356964588165283	0.41954556107521057	0.8266196846961975	27.595977783203125	33.29330825805664	33.012500762939446	1013.41259765625	-17.741168975830078	-19.060625076293945	-6.055315017700195	0.1215936467051506	0.044459771364927285	-0.09502972662448883	406
407	1512722593.1237085	-0.33890533447265625	0.4190599620342255	0.8185777068138123	27.595977783203125	33.29330825805664	33.02916717529297	1013.415283203125	-17.896512985229492	-19.061277389526367	-6.0229244232177725	0.026162616908550262	0.03732653334736824	-0.018820157274603844	407
408	1512722593.1667724	-0.3302660882472992	0.4217307269573212	0.8234516978263855	26.806215286254886	33.23720550537109	33.025001525878906	1013.419921875	-17.96062660217285	-19.185546875	-6.02087926864624	0.06597328186035156	0.043667681515216834	0.17139823734760284	408
409	1512722593.2153153	-0.3384116888046265	0.4137185513973236	0.8314936757087708	26.806215286254886	33.23720550537109	33.018749237060554	1013.420654296875	-17.62735366821289	-19.076229095458984	-5.86065149307251	0.14752380549907684	0.03603186458349228	0.13108113408088684	409
410	1512722593.265026	-0.32286104559898376	0.4018217027187347	0.8249138593673706	26.621936798095703	33.29330825805664	33.022918701171875	1013.426513671875	-17.271549224853516	-19.01073265075684	-5.286615371704102	0.1844811588525772	0.053441524505615234	-0.03110358864068985	410
411	1512722593.308974	-0.3334749639034271	0.4285288751125336	0.8261323571205139	29.386104583740234	33.33071136474609	33.02083206176758	1013.42724609375	-17.042659759521484	-19.032079696655273	-5.2489190101623535	0.07837796211242676	0.07626698911190033	-0.02337365783751011	411
412	1512722593.3524926	-0.3374243080615997	0.4212451279163361	0.8222331404685974	29.386104583740234	33.33071136474609	33.022918701171875	1013.43359375	-17.062318801879886	-19.09905815124512	-6.1360039710998535	0.042235925793647766	0.09437234699726103	0.0079590268433094	412
413	1512722593.4068675	-0.3408800065517425	0.41226181387901306	0.8224768638610841	27.01974296569824	33.36811065673828	33.03333282470703	1013.436767578125	-16.990211486816403	-19.257349014282227	-6.67820405960083	0.14363954961299896	0.04886287823319435	0.047359835356473916	413
414	1512722593.4501815	-0.33915215730667114	0.4076487123966217	0.824670135974884	27.01974296569824	33.36811065673828	33.025001525878906	1013.4404296875	-17.208398818969727	-19.250547409057614	-6.467982769012451	0.19403593242168427	0.01251639798283577	0.01559484377503395	414
415	1512722593.4995944	-0.3413737118244171	0.4127473831176758	0.8261323571205139	26.67458724975586	33.33071136474609	33.03125	1013.442138671875	-17.256772994995114	-19.225112915039066	-6.322466850280763	0.09047485888004304	0.03963327407836914	-0.1005827933549881	415
416	1512722593.5431535	-0.3438420593738556	0.4142041504383087	0.8327121138572693	26.67458724975586	33.33071136474609	33.027084350585945	1013.446533203125	-17.127813339233402	-19.178224563598636	-5.679637908935548	0.14741767942905426	-0.006616726517677307	0.02973844856023788	416
417	1512722593.601595	-0.333721786737442	0.4110478162765503	0.8207710385322571	26.38500785827637	33.255905151367195	33.02083206176758	1013.449462890625	-17.327266693115234	-19.05052947998047	-5.702834129333496	0.199952095746994	-0.036854557693004615	0.05234046280384064	417
418	1512722593.6449616	-0.32927873730659485	0.41954556107521057	0.8222331404685974	24.84058380126953	33.23720550537109	33.025001525878906	1013.4501953125	-17.424324035644528	-18.89863395690918	-5.21778678894043	0.08007542043924333	-0.01881779357790947	0.07458383589982986	418
419	1512722593.688444	-0.3305129408836365	0.4205167293548584	0.8288130164146423	24.84058380126953	33.23720550537109	33.03125	1013.458984375	-17.319381713867188	-18.883981704711914	-5.183633327484131	0.03842440992593765	0.04655001312494278	0.05775852873921394	419
420	1512722593.7347903	-0.333721786737442	0.40959104895591736	0.8322247266769409	26.668737411499023	33.31200790405273	33.04166793823242	1013.464599609375	-17.246538162231445	-19.044803619384766	-5.926472187042236	0.1317671686410904	0.0730307325720787	0.021822180598974228	420
421	1512722593.7783036	-0.3327344357967377	0.4064347743988037	0.8193088173866272	26.668737411499023	33.31200790405273	33.027084350585945	1013.46728515625	-17.428796768188473	-19.138713836669922	-5.983304023742676	0.18002553284168246	0.0785285159945488	-0.022160116583108902	421
422	1512722593.8278565	-0.3347091376781464	0.4190599620342255	0.8212583661079407	26.42595863342285	33.31200790405273	33.02916717529297	1013.465576171875	-17.26766014099121	-18.81818008422852	-6.347490787506104	0.09450438618659973	0.07058726996183395	-0.019411223009228703	422
423	1512722593.8732994	-0.3418673872947693	0.4210023283958435	0.8295440673828125	26.42595863342285	33.31200790405273	33.03333282470703	1013.464111328125	-17.73412322998047	-18.74311637878418	-6.28809928894043	0.05273305624723434	-0.041833803057670586	0.0199778713285923	423
424	1512722593.915725	-0.3413737118244171	0.4134757518768311	0.8278381824493408	27.853382110595703	33.31200790405273	33.03333282470703	1013.4560546875	-17.687114715576172	-19.012176513671875	-6.569445610046388	0.11901193112134932	0.0003158971667289734	0.06762535870075226	424
425	1512722593.9628189	-0.3361901640892029	0.4100766479969025	0.8207710385322571	27.853382110595703	33.33071136474609	33.03333282470703	1013.455078125	-17.551424026489258	-19.11847496032715	-6.4792423248291025	0.14650088548660278	-0.006709054112434386	0.08228612691164018	425
426	1512722594.0059536	-0.3319939374923706	0.4193027913570404	0.8195524811744691	24.574405670166016	33.33071136474609	33.039581298828125	1013.462158203125	-17.489356994628903	-18.9384765625	-6.828446388244629	0.07411334663629532	0.024445075541734692	0.0602949783205986	426
427	1512722594.0487885	-0.33322814106941223	0.4197883605957031	0.8278381824493408	26.703838348388672	33.349411010742195	33.039581298828125	1013.4609375	-17.567285537719727	-18.865041732788086	-6.780384540557861	0.032832689583301544	0.058601967990398414	0.01968986913561821	427
428	1512722594.099405	-0.3354496359825134	0.4057064056396485	0.8300314545631409	26.703838348388672	33.349411010742195	33.039581298828125	1013.457763671875	-17.760887145996094	-18.858619689941406	-6.163003444671631	0.13693134486675262	0.0571037270128727	-0.080009326338768	428
429	1512722594.1436634	-0.3401395380496979	0.4086198806762695	0.8254012465476991	26.44643402099609	33.38681030273437	33.04166793823242	1013.461181640625	-17.864513397216797	-18.64108657836914	-5.784452438354492	0.18244078755378726	0.038166899234056466	-0.06168336421251298	429
430	1512722594.1841247	-0.3403863608837128	0.414932519197464	0.8232079744338989	26.44643402099609	33.38681030273437	33.043750762939446	1013.461181640625	-17.53470802307129	-18.413663864135746	-5.552083492279053	0.15983878076076508	-0.013451211154460907	-0.03633245825767517	430
431	1512722594.2266958	-0.3381648361682892	0.41614645719528204	0.8258886337280273	26.64533805847168	33.33071136474609	33.039581298828125	1013.45751953125	-17.62070655822754	-18.167940139770508	-6.018856525421143	0.10851933062076567	-0.04032394289970398	-0.005974229425191879	431
432	1512722594.2740376	-0.3344623148441315	0.4193027913570404	0.8261323571205139	26.64533805847168	33.33071136474609	33.04166793823242	1013.453857421875	-17.63802719116211	-17.980514526367188	-6.6234188079833975	0.10668674111366272	-0.011002413928508759	0.02243100106716156	432
433	1512722594.323612	-0.3352028131484985	0.4180887937545776	0.8256449103355408	26.24460601806641	33.33071136474609	33.04166793823242	1013.45263671875	-17.524389266967773	-18.089982986450195	-6.251474857330322	0.07546436041593553	0.030623801052570343	0.00433635339140892	433
434	1512722594.3673053	-0.3324876129627228	0.4078915119171143	0.8227205872535706	26.24460601806641	33.33071136474609	33.039581298828125	1013.447998046875	-17.611568450927734	-18.254552841186523	-5.787545680999756	0.11242169886827467	0.03948134928941727	-0.016127632930874825	434
435	1512722594.409631	-0.3361901640892029	0.410319447517395	0.8261323571205139	27.59305191040039	33.31200790405273	33.03749847412109	1013.449951171875	-17.742782592773438	-18.32708168029785	-5.872265815734862	0.12952592968940735	0.0376487523317337	-0.02803950384259224	435
436	1512722594.4593768	-0.33717748522758484	0.4185743927955627	0.8300314545631409	26.390857696533203	33.255905151367195	33.04166793823242	1013.4443359375	-17.567800521850586	-18.546358108520508	-5.958321571350098	0.09592833369970323	0.03001294285058975	0.001892890781164169	436
437	1512722594.5030572	-0.3352028131484985	0.4132329821586609	0.8268634080886841	26.390857696533203	33.255905151367195	33.04791641235352	1013.442138671875	-17.331424713134766	-18.82142639160156	-6.020413398742676	0.11517059057950975	0.03001294285058975	-0.024068880826234814	437
438	1512722594.5456786	-0.34458258748054504	0.4088627099990845	0.8263760209083557	26.43180847167969	33.33071136474609	33.043750762939446	1013.441162109375	-17.576446533203125	-18.72299575805664	-6.330021381378174	0.1414377987384796	-0.0017520524561405182	0.012888465076684952	438
